CSV format: Accelerometer x value, acclerometer y value, accelerometer z value, gyroscope x value, gyroscope y value, gyroscope z value
Sample frequency: 100Hz
0.5390625,-0.921875,0.00048828125,0.00762939453125,2.22778320312,-2.91442871094
0.0,-0.921630859375,0.01123046875,0.06103515625,1.96838378906,-2.9296875
0.53271484375,-0.91796875,0.0,0.0,2.15148925781,-2.197265625
0.53515625,-0.921875,0.0,0.221252441406,2.21252441406,0.0
0.53125,-0.919921875,0.0078125,0.984191894531,2.0751953125,-2.44140625
0.53125,-0.921875,0.000244140625,0.244140625,2.34985351562,0.0
0.000244140625,-0.9375,0.000244140625,0.18310546875,2.01416015625,-2.38037109375
0.5390625,-0.92138671875,0.000244140625,0.18310546875,1.98364257812,-2.86102294922
0.534912109375,-0.93359375,0.006103515625,0.503540039062,1.96838378906,0.0
0.533447265625,-0.921875,0.002685546875,0.328063964844,1.96075439453,0.0
0.53125,-0.921630859375,0.001953125,0.434875488281,1.953125,0.0228881835938
0.5390625,-0.92138671875,0.000244140625,0.1220703125,1.953125,-2.3193359375
0.53125,-0.921875,0.000244140625,0.9765625,0.48828125,0.0
0.53125,-0.91796875,0.0,0.00762939453125,1.953125,-2.44140625
0.531494140625,-0.93359375,0.0,0.030517578125,2.22778320312,-2.3193359375
0.53125,-0.921875,0.0,0.0152587890625,1.953125,-2.91442871094
0.53173828125,-0.931640625,0.0029296875,0.244140625,0.320434570312,-2.44140625
0.5390625,-0.919921875,0.0,0.0152587890625,1.953125,-2.44140625
0.53125,-0.921875,0.00390625,0.00762939453125,2.0751953125,-2.44140625
0.53515625,-0.919921875,0.0,0.0152587890625,1.953125,0.0
0.53125,-0.921875,0.0,0.0152587890625,1.98364257812,0.0
0.53125,-0.921630859375,0.0,0.0,2.3193359375,0.00762939453125
0.000244140625,-0.921630859375,0.004150390625,0.137329101562,1.98364257812,-2.38037109375
0.535400390625,-0.921875,0.0029296875,0.0152587890625,2.0751953125,0.0
0.53125,-0.9189453125,0.000244140625,0.48828125,1.953125,0.0
0.53173828125,-0.921875,0.0,0.9765625,1.953125,0.0152587890625
0.5390625,-0.935546875,0.0078125,0.6103515625,1.96838378906,-2.44140625
0.53125,-0.92138671875,0.00390625,0.00762939453125,1.953125,-2.81524658203
0.53125,-0.921875,0.00390625,0.0,1.96838378906,-2.9296875
0.531494140625,-0.921875,0.0,0.503540039062,0.00762939453125,-2.67791748047
0.5390625,-0.935546875,0.0,0.0,2.47192382812,0.030517578125
0.5390625,-0.919921875,0.000244140625,0.030517578125,1.953125,0.06103515625
0.53515625,-0.921875,0.00048828125,0.244140625,2.44140625,-2.43377685547
0.53125,-0.93701171875,0.0,0.9765625,0.0,-2.38037109375
0.5322265625,-0.921875,0.0,0.0,1.953125,-2.44140625
0.5390625,-0.921875,0.0,0.0152587890625,1.953125,-2.41088867188
0.53125,-0.93359375,0.008056640625,0.0152587890625,1.96075439453,0.0
0.0009765625,-0.91943359375,0.005859375,0.3662109375,1.953125,-2.43377685547
0.53125,-0.937255859375,0.0078125,0.48828125,2.197265625,0.0
0.53955078125,-0.921875,0.0,0.244140625,0.495910644531,-2.88391113281
0.53125,-0.92138671875,0.0087890625,0.0,1.96075439453,-2.41088867188
0.53125,-0.920654296875,0.009033203125,0.373840332031,2.0751953125,0.244140625
0.531494140625,-0.919921875,0.000244140625,0.0457763671875,1.953125,0.0
0.533203125,-0.919921875,0.0,0.030517578125,1.953125,-2.44140625
0.539306640625,-0.921875,0.0,0.129699707031,0.0152587890625,0.0
0.53125,-0.921875,0.0078125,0.244140625,2.0751953125,0.0
0.5390625,-0.92138671875,0.0009765625,0.259399414062,1.96075439453,-2.8076171875
0.533203125,-0.921630859375,0.0,0.0381469726562,1.953125,0.0
0.53515625,-0.921875,0.00830078125,0.0762939453125,2.197265625,-2.8076171875
0.53125,-0.921875,0.0,0.030517578125,1.97601318359,0.0152587890625
0.53125,-0.92138671875,0.0,0.244140625,1.98364257812,-2.9296875
0.53125,-0.9208984375,0.0009765625,0.30517578125,2.0751953125,0.0
0.5390625,-0.921875,0.0029296875,0.0457763671875,2.22778320312,-2.44140625
0.5390625,-0.921875,0.0,0.48828125,1.953125,0.0
0.53125,-0.921875,0.0078125,0.0,0.06103515625,-2.76947021484
0.539306640625,-0.91796875,0.000244140625,0.244140625,0.091552734375,-2.54821777344
0.53125,-0.921875,0.005859375,0.984191894531,1.953125,-2.9296875
0.0,-0.921875,0.00048828125,0.0,2.3193359375,0.030517578125
0.5390625,-0.93310546875,0.0078125,0.0152587890625,1.953125,-2.9296875
0.539306640625,-0.9208984375,0.002197265625,0.0,1.953125,-2.59399414062
0.5361328125,-0.921875,0.00927734375,0.0,1.96075439453,-2.91442871094
0.53125,-0.93701171875,0.0,0.0,1.953125,-2.42614746094
0.5390625,-0.921875,0.0,0.0,1.96075439453,-2.44140625
0.53125,-0.921875,0.0078125,0.0,1.953125,-2.41088867188
CSV format: Accelerometer x value, acclerometer y value, accelerometer z value, gyroscope x value, gyroscope y value, gyroscope z value
Sample frequency: 100Hz
0.5400390625,-0.9375,0.0,0.00762939453125,2.01416015625,0.00762939453125
0.53173828125,-0.9375,0.00390625,0.0,1.96838378906,-2.50244140625
0.53125,-0.93310546875,0.001953125,0.0,1.96075439453,-2.9296875
0.5390625,-0.921875,0.0,0.0,2.09045410156,-2.41088867188
0.532470703125,-0.921875,0.00048828125,1.05285644531,2.197265625,0.0
0.53125,-0.93359375,0.0078125,0.0,1.98364257812,-2.92205810547
0.539794921875,-0.9375,0.0078125,0.06103515625,1.953125,-2.67028808594
0.53125,-0.921875,0.00390625,0.0152587890625,2.0751953125,-2.9296875
0.5322265625,-0.921630859375,0.0009765625,0.0,1.98364257812,0.0
0.532958984375,-0.921875,0.009765625,0.991821289062,2.0751953125,0.0
0.533203125,-0.935546875,0.0078125,0.244140625,1.96075439453,-2.37274169922
0.53173828125,-0.921875,0.008056640625,0.0,1.953125,-2.89916992188
0.53125,-0.937255859375,0.0,0.503540039062,2.0751953125,0.0152587890625
0.53955078125,-0.9189453125,0.00048828125,0.289916992188,1.953125,0.0
0.5390625,-0.919921875,0.009765625,0.129699707031,1.96838378906,-2.79235839844
0.53125,-0.9375,0.009765625,0.244140625,1.953125,0.0
0.53125,-0.921875,0.0078125,0.48828125,1.953125,-2.44140625
0.533203125,-0.93310546875,0.0,0.0,1.953125,-2.685546875
0.537109375,-0.921875,0.0,0.0,1.96075439453,-2.44140625
0.53125,-0.919921875,0.0078125,0.244140625,1.98364257812,-2.42614746094
0.53955078125,-0.921875,0.008056640625,0.1220703125,1.953125,-2.685546875
0.532470703125,-0.921875,0.0078125,0.06103515625,1.98364257812,-2.86865234375
0.536376953125,-0.921875,0.001953125,0.244140625,1.96838378906,-2.43377685547
0.53955078125,-0.921875,0.0078125,0.9765625,1.953125,-2.44140625
0.53173828125,-0.921875,0.0078125,0.0,2.197265625,-2.89916992188
0.53515625,-0.921875,0.0,0.0,1.98364257812,-2.89916992188
0.53125,-0.935546875,0.00048828125,0.48828125,1.953125,-2.9296875
0.531494140625,-0.921875,0.0,0.00762939453125,1.96075439453,-2.37274169922
0.541015625,-0.921875,0.0,0.06103515625,2.01416015625,-2.86865234375
0.531494140625,-0.921875,0.015625,0.251770019531,1.953125,-2.41088867188
0.53515625,-0.937255859375,0.000244140625,0.48828125,2.21252441406,-2.43377685547
0.5322265625,-0.921875,0.0009765625,0.00762939453125,1.96075439453,-2.9296875
0.53125,-0.921875,0.0,0.0,1.953125,-2.86865234375
0.53173828125,-0.921875,0.0,0.06103515625,2.02941894531,-2.41088867188
0.53125,-0.91943359375,0.0,0.9765625,1.953125,-2.5634765625
0.5390625,-0.921875,0.001953125,0.9765625,0.1220703125,-2.92205810547
0.53125,-0.921875,0.0,0.9765625,1.96075439453,-2.685546875
0.53125,-0.919921875,0.00244140625,0.06103515625,1.96838378906,0.0
0.53125,-0.919921875,0.00390625,0.373840332031,0.06103515625,0.0
0.5322265625,-0.921875,0.0,0.244140625,1.98364257812,0.0
0.5390625,-0.921875,0.0068359375,0.244140625,2.04467773438,-2.92205810547
0.53125,-0.92138671875,0.0,0.0,1.953125,-2.685546875
0.539306640625,-0.91796875,0.001953125,0.0,2.197265625,0.0
0.533203125,-0.921875,0.00048828125,0.0,1.953125,-2.86865234375
0.53125,-0.917724609375,0.002197265625,0.00762939453125,2.0751953125,-2.43377685547
0.5341796875,-0.921875,0.008544921875,0.244140625,0.1220703125,-2.42614746094
0.5390625,-0.9375,0.001953125,0.0,1.953125,-2.41088867188
0.53125,-0.921875,0.0,0.0,1.97601318359,-2.42614746094
0.535400390625,-0.921875,0.004638671875,0.0686645507812,0.518798828125,-2.44140625
0.5390625,-0.91796875,0.001953125,0.495910644531,1.99127197266,-2.43377685547
0.53125,-0.921875,0.0078125,0.0,1.96075439453,-2.44140625
0.5322265625,-0.92138671875,0.0078125,0.0,2.44140625,0.030517578125
0.53515625,-0.919921875,0.009765625,0.244140625,2.01416015625,-1.93786621094
0.5390625,-0.921875,0.004150390625,0.48828125,2.01416015625,-2.44140625
0.5390625,-0.921875,0.000244140625,0.0152587890625,2.20489501953,0.0
0.53564453125,-0.921630859375,0.0,0.0,1.953125,-2.38037109375
0.533203125,-0.9375,0.009765625,0.579833984375,1.953125,0.06103515625
0.531494140625,-0.92041015625,0.00048828125,0.244140625,1.953125,-2.41088867188
0.53125,-0.921875,0.0,0.48828125,1.953125,0.0
0.53173828125,-0.921875,0.0009765625,0.00762939453125,1.953125,0.030517578125
0.53125,-0.93359375,0.00146484375,0.48828125,1.953125,-2.9296875
0.5322265625,-0.921875,0.001953125,1.00708007812,1.96838378906,-2.86865234375
0.53125,-0.92138671875,0.00390625,0.0,1.953125,-2.67028808594
0.5322265625,-0.921875,0.00048828125,0.274658203125,0.6103515625,-2.685546875
0.5390625,-0.921875,0.008056640625,0.244140625,1.953125,-2.86865234375
0.5400390625,-0.919921875,0.0,0.0,2.3193359375,0.0
0.53125,-0.919921875,0.0078125,0.244140625,1.953125,-2.9296875
0.5322265625,-0.921875,0.000244140625,0.0,1.953125,-2.65502929688
0.53125,-0.92138671875,0.0,1.03759765625,1.953125,0.0
0.53369140625,-0.921875,0.0,0.48828125,1.953125,-2.83813476562
0.53271484375,-0.92041015625,0.0078125,0.48828125,2.0751953125,-2.89916992188
0.533203125,-0.92138671875,0.0,0.0228881835938,1.953125,-2.67791748047
0.5390625,-0.921875,0.0009765625,0.3662109375,1.953125,-2.9296875
0.5390625,-0.91796875,0.0,0.1220703125,2.3193359375,0.030517578125
0.535400390625,-0.9375,0.0078125,0.030517578125,1.953125,-2.44140625
0.533203125,-0.921875,0.0,0.0762939453125,0.0152587890625,-2.41088867188
0.5390625,-0.921875,0.0,0.9765625,2.25830078125,-2.44140625
0.5322265625,-0.9365234375,0.0078125,0.18310546875,2.3193359375,-2.685546875
0.53125,-0.921630859375,0.0,0.0,1.98364257812,-2.9296875
0.53173828125,-0.921875,0.004150390625,0.0,1.98364257812,0.0
0.533203125,-0.9375,0.0078125,0.244140625,2.18963623047,-2.685546875
0.5390625,-0.921875,0.0029296875,0.0,1.96838378906,-2.685546875
0.53125,-0.919921875,0.0,0.00762939453125,1.96838378906,-2.67028808594
0.53125,-0.9208984375,0.00048828125,0.0,0.06103515625,-2.28881835938
0.53125,-0.921875,0.0,0.251770019531,1.953125,0.0
0.5390625,-0.92138671875,0.000244140625,1.0986328125,1.953125,-2.86865234375
0.53125,-0.921875,0.00146484375,0.9765625,1.953125,-2.89154052734
0.5322265625,-0.931640625,0.0,0.9765625,1.953125,0.0839233398438
0.53369140625,-0.921875,0.0029296875,0.984191894531,1.96075439453,0.0
0.0,-0.92041015625,0.0078125,0.9765625,2.197265625,-2.33459472656
0.5390625,-0.921875,0.0,0.00762939453125,1.953125,0.0
0.53125,-0.92138671875,0.0078125,0.274658203125,2.01416015625,-2.3193359375
0.53125,-0.921630859375,0.00390625,0.0,0.48828125,0.0
0.53173828125,-0.9375,0.0,0.282287597656,1.96838378906,-2.9296875
0.53173828125,-0.921875,0.0078125,0.991821289062,2.01416015625,-2.41088867188
0.5390625,-0.921630859375,0.0,0.991821289062,1.98364257812,-2.42614746094
0.531494140625,-0.9375,0.0,0.06103515625,1.953125,-2.685546875
0.535400390625,-0.921630859375,0.00048828125,0.244140625,0.396728515625,-2.42614746094
0.0,-0.918701171875,0.0078125,0.0,0.0,-2.31170654297
0.533203125,-0.921875,0.0078125,0.0,1.98364257812,0.030517578125
0.531494140625,-0.921875,0.0,0.48828125,1.953125,-2.3193359375
0.53515625,-0.921875,0.0,0.0,2.3193359375,-2.38037109375
0.533203125,-0.921875,0.0029296875,0.030517578125,2.22778320312,0.06103515625
0.53564453125,-0.919921875,0.0,0.244140625,2.14385986328,-2.89916992188
0.5390625,-0.921875,0.0,1.00708007812,2.25830078125,-2.44140625
0.53173828125,-0.921630859375,0.0,0.0152587890625,1.98364257812,-2.92205810547
0.53955078125,-0.92138671875,0.00830078125,0.06103515625,2.44140625,-2.8076171875
0.531494140625,-0.921875,0.0,0.259399414062,2.01416015625,0.0
0.533203125,-0.921875,0.001220703125,0.0,1.96075439453,-2.65502929688
0.533203125,-0.92138671875,0.000244140625,0.274658203125,2.21252441406,-2.44140625
0.53515625,-0.92041015625,0.0078125,0.06103515625,2.01416015625,0.0
0.5390625,-0.9365234375,0.0,0.0762939453125,0.495910644531,-2.44140625
0.53564453125,-0.921875,0.0,0.289916992188,2.01416015625,0.0
0.53173828125,-0.921630859375,0.001953125,0.1220703125,1.96075439453,-2.44140625
0.5322265625,-0.921875,0.000244140625,0.0,0.0152587890625,-2.8076171875
0.53125,-0.921875,0.0078125,0.48828125,1.953125,-2.38037109375
0.537109375,-0.921875,0.0078125,0.244140625,1.98364257812,-2.3193359375
0.535400390625,-0.93701171875,0.0,0.9765625,1.953125,0.0
0.53125,-0.921630859375,0.0,0.0152587890625,2.16674804688,0.1220703125
0.5390625,-0.93359375,0.00390625,0.1220703125,1.98364257812,0.1220703125
0.53125,-0.9326171875,0.009765625,0.0,1.953125,-2.9296875
0.533203125,-0.9326171875,0.00830078125,0.0,1.953125,0.0457763671875
0.5390625,-0.921875,0.0078125,0.0152587890625,2.197265625,-2.5634765625
0.5390625,-0.9326171875,0.000732421875,0.0,1.98364257812,-2.41088867188
0.5322265625,-0.9375,0.0,0.0,2.197265625,-2.41088867188
0.53125,-0.921875,0.0078125,0.030517578125,1.953125,-2.9296875
0.53955078125,-0.921875,0.0009765625,0.54931640625,1.96075439453,0.244140625
0.53125,-0.921875,0.0078125,0.18310546875,1.953125,0.0152587890625
0.533203125,-0.93701171875,0.01171875,0.0,2.01416015625,-2.44140625
0.53125,-0.9208984375,0.0,0.984191894531,2.01416015625,-2.3193359375
0.532470703125,-0.921875,0.000244140625,0.0,1.953125,-2.9296875
0.5390625,-0.91796875,0.00048828125,0.0152587890625,1.953125,0.1220703125
0.53125,-0.9375,0.000244140625,0.503540039062,2.01416015625,-2.8076171875
0.53125,-0.935546875,0.0,0.244140625,1.953125,-2.67028808594
0.53125,-0.921875,0.0,0.259399414062,2.09045410156,0.0
0.53515625,-0.921875,0.00048828125,0.617980957031,1.96838378906,-2.67791748047
0.5400390625,-0.92138671875,0.0,0.18310546875,2.0751953125,-2.685546875
0.53125,-0.921875,0.000244140625,0.244140625,1.953125,0.0
0.53125,-0.921875,0.0078125,0.0,2.3193359375,-2.44140625
0.53173828125,-0.919921875,0.0078125,0.3662109375,1.953125,-2.9296875
0.5390625,-0.921875,0.0,0.251770019531,0.030517578125,-2.685546875
0.53515625,-0.934326171875,0.0078125,0.0,2.197265625,0.0
0.53125,-0.921875,0.002197265625,0.244140625,1.953125,-2.685546875
0.539306640625,-0.9208984375,0.000244140625,0.1220703125,1.953125,-2.44140625
0.53369140625,-0.933349609375,0.0,0.06103515625,1.953125,0.030517578125
0.53173828125,-0.921875,0.00830078125,0.0686645507812,1.953125,0.0152587890625
0.53125,-0.921875,0.0009765625,0.48828125,1.953125,0.129699707031
0.5390625,-0.9375,0.0,0.129699707031,1.96838378906,0.00762939453125
0.533203125,-0.9208984375,0.0,0.0,0.244140625,-2.685546875
0.53369140625,-0.919921875,0.0009765625,0.137329101562,2.20489501953,-2.8076171875
0.54052734375,-0.93701171875,0.0,0.0228881835938,2.197265625,-2.31170654297
0.53515625,-0.921875,0.0078125,0.9765625,1.953125,-2.9296875
0.53125,-0.93359375,0.001220703125,1.02233886719,1.96838378906,0.0
0.536376953125,-0.935546875,0.010009765625,0.0,2.22778320312,-2.42614746094
0.53125,-0.919921875,0.0,0.0,2.197265625,-2.62451171875
0.5390625,-0.9208984375,0.0,0.9765625,1.953125,-2.9296875
0.53125,-0.921875,0.0078125,0.152587890625,1.953125,-2.77709960938
0.53125,-0.921875,0.0078125,0.0152587890625,1.953125,0.00762939453125
0.53125,-0.92138671875,0.009765625,0.0,1.953125,-2.685546875
0.533203125,-0.919921875,0.00390625,0.984191894531,1.96838378906,0.0
0.5390625,-0.9208984375,0.001708984375,1.01470947266,2.0751953125,-2.44140625
0.53125,-0.921875,0.00390625,1.01470947266,0.6103515625,-2.44140625
0.5390625,-0.9189453125,0.0078125,0.18310546875,1.953125,0.0
0.53125,-0.921875,0.0,0.06103515625,1.953125,-2.41088867188
0.5390625,-0.92138671875,0.0,0.244140625,1.953125,0.1220703125
0.539306640625,-0.921875,0.00048828125,0.9765625,1.953125,-2.62451171875
0.53515625,-0.921875,0.008056640625,0.0,2.197265625,-2.89916992188
0.53125,-0.921875,0.000244140625,0.0,1.953125,-2.9296875
0.5390625,-0.921875,0.0078125,0.1220703125,1.953125,-2.44140625
0.53125,-0.921875,0.0078125,0.00762939453125,1.953125,-2.79998779297
0.531494140625,-0.921875,0.0087890625,0.289916992188,1.98364257812,0.0
0.5390625,-0.91796875,0.005859375,0.0,1.953125,-2.41088867188
0.53125,-0.93310546875,0.00048828125,0.495910644531,1.98364257812,-2.44140625
0.5390625,-0.919921875,0.0,0.0,2.0751953125,-2.44140625
0.53173828125,-0.91796875,0.000244140625,0.0152587890625,0.518798828125,0.06103515625
0.533203125,-0.921875,0.001953125,0.0762939453125,2.10571289062,-2.44140625
0.533203125,-0.921875,0.0078125,0.0,1.953125,0.06103515625
0.533447265625,-0.92138671875,0.008056640625,0.0,1.98364257812,-2.41088867188
0.5380859375,-0.921875,0.00830078125,0.0152587890625,1.96838378906,-2.685546875
0.53125,-0.93359375,0.0,0.1220703125,1.96838378906,-2.9296875
0.5322265625,-0.921630859375,0.011962890625,0.0,2.38800048828,-2.41088867188
0.53125,-0.921875,0.0,0.00762939453125,1.953125,-2.9296875
0.00048828125,-0.921875,0.00048828125,0.0,1.953125,-2.88391113281
0.53125,-0.91796875,0.000244140625,0.0,0.137329101562,0.00762939453125
0.53173828125,-0.921875,0.0009765625,0.244140625,1.953125,-2.9296875
0.5390625,-0.92138671875,0.00244140625,0.0,2.0751953125,0.00762939453125
0.53125,-0.93701171875,0.00634765625,0.9765625,1.953125,0.0
0.53125,-0.921142578125,0.008056640625,0.0,2.13623046875,0.1220703125
0.532470703125,-0.921875,0.0078125,0.06103515625,2.0751953125,0.0
0.5380859375,-0.921875,0.001953125,0.00762939453125,2.0751953125,0.00762939453125
0.5322265625,-0.921875,0.0009765625,0.030517578125,2.197265625,0.0
0.53125,-0.92138671875,0.008056640625,0.48828125,2.197265625,-2.44140625
0.5322265625,-0.93505859375,0.001953125,0.9765625,1.953125,-2.9296875
0.53173828125,-0.935546875,0.0,0.0762939453125,2.10571289062,0.0
0.53125,-0.921875,0.0,0.244140625,2.32696533203,-2.66265869141
0.53125,-0.921875,0.0,0.48828125,2.0751953125,0.0
0.5390625,-0.9208984375,0.00830078125,0.6103515625,1.953125,0.137329101562
0.5322265625,-0.921875,0.0,0.0,1.953125,-2.91442871094
0.533203125,-0.921875,0.0,0.0,1.953125,0.0
0.533203125,-0.9345703125,0.0009765625,0.244140625,1.953125,0.0
0.53173828125,-0.921875,0.0078125,0.00762939453125,1.953125,-2.64739990234
0.537841796875,-0.92138671875,0.001953125,0.244140625,2.01416015625,-2.64739990234
0.53125,-0.921875,0.001953125,0.244140625,1.953125,0.06103515625
0.5390625,-0.921875,0.0,0.0,1.953125,0.0
0.5390625,-0.921875,0.0078125,0.244140625,1.953125,-2.44140625
0.53125,-0.9365234375,0.0,1.00708007812,1.953125,0.06103515625
0.53125,-0.921875,0.00048828125,0.251770019531,2.01416015625,-2.65502929688
0.53125,-0.921875,0.0,0.244140625,1.953125,0.06103515625
0.533203125,-0.9375,0.00390625,0.137329101562,1.953125,0.0
0.5322265625,-0.921630859375,0.0,0.1220703125,2.0751953125,-2.62451171875
0.53515625,-0.919921875,0.00390625,0.48828125,2.197265625,-2.685546875
0.531982421875,-0.919921875,0.0078125,0.244140625,1.953125,0.0152587890625
0.541259765625,-0.921875,0.0009765625,0.0,1.953125,0.0839233398438
0.531494140625,-0.921875,0.0,0.518798828125,1.953125,-2.42614746094
0.53173828125,-0.932861328125,0.0,1.00708007812,2.01416015625,0.00762939453125
0.533203125,-0.933349609375,0.0078125,0.0152587890625,1.953125,-2.44140625
0.53125,-0.921875,0.0,0.0,1.99890136719,0.0
0.53125,-0.919677734375,0.0009765625,0.00762939453125,0.30517578125,-2.9296875
0.0009765625,-0.9375,0.0,0.30517578125,1.953125,-2.685546875
0.533203125,-0.935546875,0.0078125,0.495910644531,0.0,0.030517578125
0.53125,-0.921875,0.0078125,0.0152587890625,1.953125,-2.89916992188
0.5400390625,-0.9208984375,0.001953125,0.030517578125,2.02178955078,-2.44140625
0.53125,-0.9208984375,0.0,0.030517578125,1.953125,-2.9296875
0.533203125,-0.921875,0.0,0.0,0.244140625,0.06103515625
0.5390625,-0.92041015625,0.00390625,0.0,1.98364257812,0.0
0.53125,-0.920654296875,0.0078125,0.137329101562,2.13623046875,0.0
0.5322265625,-0.935546875,0.001953125,0.9765625,2.01416015625,0.0
0.53125,-0.921630859375,0.0009765625,0.0,2.197265625,0.0
0.53125,-0.921630859375,0.000244140625,0.1220703125,1.96838378906,-2.44140625
0.53271484375,-0.921630859375,0.0,1.03759765625,1.953125,0.0
0.53125,-0.919921875,0.000732421875,0.259399414062,1.96075439453,-2.86865234375
0.53125,-0.9208984375,0.0,0.0457763671875,1.953125,-2.44140625
0.531494140625,-0.921875,0.000244140625,0.259399414062,1.953125,0.06103515625
0.533203125,-0.93212890625,0.0,0.0152587890625,1.96075439453,-2.44140625
0.533447265625,-0.91943359375,0.002197265625,1.0986328125,2.0751953125,-2.9296875
0.53173828125,-0.935546875,0.0087890625,0.9765625,2.3193359375,-2.86865234375
0.533447265625,-0.919921875,0.0078125,0.0152587890625,1.99890136719,0.1220703125
0.533203125,-0.921875,0.0,0.00762939453125,1.953125,0.0
0.5390625,-0.921875,0.00048828125,0.9765625,1.98364257812,0.0152587890625
0.53125,-0.921875,0.0,0.48828125,1.96838378906,-2.685546875
0.533203125,-0.919921875,0.0,0.06103515625,1.96075439453,0.0
0.531494140625,-0.921875,0.0009765625,0.259399414062,1.953125,-2.9296875
0.533203125,-0.92138671875,0.0,0.030517578125,1.98364257812,-2.685546875
0.53955078125,-0.921875,0.0078125,0.320434570312,1.953125,-2.9296875
0.533203125,-0.92138671875,0.0078125,0.274658203125,1.953125,0.0
0.533203125,-0.921630859375,0.0,0.0,1.953125,-2.25830078125
0.53125,-0.921875,0.0078125,0.48828125,1.96838378906,0.1220703125
0.53125,-0.919921875,0.0078125,0.0762939453125,0.00762939453125,-2.3193359375
0.5400390625,-0.921875,0.0078125,0.48828125,0.48828125,0.0
0.0,-0.935546875,0.001953125,0.0,1.96075439453,-2.42614746094
0.53759765625,-0.921875,0.0,0.991821289062,2.44140625,-2.9296875
0.53173828125,-0.921875,0.0009765625,0.30517578125,2.22778320312,-2.8076171875
0.53125,-0.921875,0.00048828125,0.9765625,1.98364257812,0.0
0.53125,-0.9208984375,0.005859375,0.030517578125,1.953125,0.1220703125
0.53125,-0.921875,0.0,0.030517578125,2.10571289062,-2.44140625
0.533203125,-0.937255859375,0.0009765625,0.0,1.96075439453,0.1220703125
0.53515625,-0.9365234375,0.00927734375,0.0,1.953125,-2.9296875
0.53125,-0.9208984375,0.0078125,0.0,0.00762939453125,-2.44140625
0.53515625,-0.93359375,0.00830078125,0.0,1.98364257812,-2.44140625
0.531494140625,-0.921875,0.0107421875,0.0,2.197265625,0.0
0.537109375,-0.921875,0.0,0.503540039062,2.20489501953,-2.44140625
0.5390625,-0.921875,0.000732421875,0.244140625,2.01416015625,-2.89916992188
0.53125,-0.921630859375,0.0078125,0.244140625,1.953125,-2.40325927734
0.53125,-0.921875,0.0078125,0.244140625,0.42724609375,-2.9296875
0.53125,-0.921142578125,0.0009765625,0.0457763671875,1.953125,0.1220703125
0.5341796875,-0.933349609375,0.002197265625,0.30517578125,1.96838378906,-2.685546875
0.53125,-0.9375,0.0078125,0.0,1.96838378906,0.030517578125
0.53125,-0.9208984375,0.001953125,0.244140625,2.44140625,0.0
0.53125,-0.921630859375,0.001708984375,0.0,1.953125,-2.79998779297
0.53125,-0.921875,0.00048828125,0.0,2.0751953125,-2.8076171875
0.53125,-0.921875,0.0,0.0762939453125,1.953125,-2.44140625
0.53125,-0.921875,0.0,1.03759765625,2.09045410156,0.0762939453125
0.533203125,-0.937255859375,0.0078125,0.0,1.96838378906,-2.44140625
0.531494140625,-0.91796875,0.0,0.06103515625,1.953125,0.0228881835938
0.53369140625,-0.9208984375,0.0078125,0.030517578125,2.0751953125,-2.92205810547
0.533203125,-0.921142578125,0.0,0.335693359375,2.01416015625,-2.89916992188
0.53564453125,-0.921875,0.0078125,0.244140625,0.091552734375,0.0
0.539306640625,-0.9208984375,0.0078125,0.9765625,1.953125,-2.92205810547
0.53173828125,-0.935546875,0.0009765625,0.1220703125,1.953125,0.0
0.53125,-0.921875,0.0009765625,1.220703125,1.953125,-2.44140625
0.53125,-0.935546875,0.0078125,0.00762939453125,1.953125,-2.44140625
0.5400390625,-0.921875,0.0009765625,0.0,0.1220703125,-2.91442871094
0.5322265625,-0.921875,0.0,0.0991821289062,2.01416015625,0.06103515625
0.53125,-0.921875,0.0,0.244140625,2.01416015625,-2.41088867188
0.5390625,-0.921875,0.0,0.152587890625,1.99127197266,-2.41088867188
0.5390625,-0.921875,0.00390625,0.3662109375,1.953125,-2.44140625
0.53125,-0.921875,0.0,0.244140625,1.953125,-2.67791748047
0.53125,-0.93359375,0.0078125,0.129699707031,1.953125,0.091552734375
0.533203125,-0.921630859375,0.0,0.42724609375,1.953125,0.0457763671875
0.5390625,-0.921875,0.00830078125,0.335693359375,0.0762939453125,-2.9296875
0.5322265625,-0.9375,0.0,0.0,1.953125,-2.9296875
0.53125,-0.921875,0.001953125,0.030517578125,1.953125,0.0
0.53125,-0.921875,0.000244140625,0.030517578125,2.0751953125,0.0152587890625
0.53173828125,-0.935546875,0.0078125,0.0,0.30517578125,-2.9296875
0.5390625,-0.9375,0.0078125,0.244140625,1.99890136719,-2.39562988281
0.53125,-0.935546875,0.0009765625,0.0,2.01416015625,-2.83813476562
0.53125,-0.919921875,0.0,0.0,1.953125,0.0
0.53125,-0.9375,0.000244140625,0.0,2.05230712891,-2.44140625
0.5390625,-0.9375,0.0078125,0.0152587890625,2.01416015625,0.0
0.53173828125,-0.921875,0.0009765625,0.984191894531,1.98364257812,-2.88391113281
0.53564453125,-0.920654296875,0.0,0.0,1.953125,-2.41088867188
0.53515625,-0.92138671875,0.00390625,0.30517578125,1.953125,-2.38037109375
0.53125,-0.921875,0.008544921875,0.0381469726562,2.3193359375,-2.88391113281
0.5390625,-0.921875,0.0,0.3662109375,1.953125,-2.9296875
0.53125,-0.921875,0.0,0.259399414062,2.197265625,-2.61688232422
0.53271484375,-0.92041015625,0.000244140625,0.030517578125,2.09045410156,0.0
0.53125,-0.921875,0.0009765625,0.274658203125,0.0534057617188,-2.9296875
0.53125,-0.916015625,0.0009765625,0.1220703125,1.96838378906,-2.65502929688
0.53125,-0.92138671875,0.0078125,1.12915039062,1.96838378906,0.0
0.533203125,-0.921875,0.0,0.0,1.953125,0.0686645507812
0.5390625,-0.91796875,0.00048828125,0.9765625,1.953125,-2.44140625
0.0,-0.921875,0.0078125,0.144958496094,1.953125,-2.44140625
0.53173828125,-0.921875,0.008056640625,0.06103515625,1.953125,-2.37274169922
0.53173828125,-0.9375,0.0,0.0152587890625,0.42724609375,-2.44140625
0.53125,-0.921875,0.01171875,0.274658203125,0.06103515625,-2.41088867188
0.5322265625,-0.93701171875,0.0,0.0,1.96075439453,-2.685546875
0.53173828125,-0.921875,0.0078125,0.1220703125,2.3193359375,-2.8076171875
0.53125,-0.9375,0.00048828125,0.0,1.953125,0.0
0.53125,-0.921875,0.0078125,0.030517578125,1.96838378906,0.1220703125
0.53173828125,-0.93408203125,0.004150390625,0.244140625,1.953125,-2.77709960938
0.53125,-0.921875,0.000244140625,0.244140625,1.953125,-2.41088867188
0.53125,-0.9375,0.0,0.9765625,1.953125,-2.44140625
0.531494140625,-0.9375,0.0,0.0381469726562,1.953125,0.0
0.53125,-0.935546875,0.00830078125,0.00762939453125,1.98364257812,0.0
0.53125,-0.921875,0.0078125,0.137329101562,2.25830078125,-2.44140625
0.5390625,-0.921875,0.0,0.30517578125,1.96075439453,-1.953125
0.533203125,-0.919921875,0.001953125,0.48828125,1.96075439453,-2.89916992188
0.53173828125,-0.921875,0.0,0.244140625,1.953125,-2.91442871094
0.5322265625,-0.921875,0.001953125,0.244140625,1.953125,0.0762939453125
0.53125,-0.935546875,0.0,0.404357910156,1.953125,0.0686645507812
0.5322265625,-0.921875,0.0,0.0,1.953125,-2.92205810547
0.53955078125,-0.9375,0.0,0.244140625,1.953125,0.0
0.53955078125,-0.9365234375,0.00390625,0.244140625,1.953125,0.06103515625
0.000244140625,-0.921875,0.0078125,0.48828125,1.96075439453,-2.44140625
0.537353515625,-0.921875,0.0,0.1220703125,1.953125,-2.79998779297
0.53125,-0.9375,0.0,0.244140625,1.953125,-2.44140625
0.53125,-0.921142578125,0.0009765625,0.9765625,2.0751953125,-2.43377685547
0.53125,-0.921875,0.001953125,0.991821289062,2.01416015625,-2.86865234375
0.53125,-0.921875,0.0,0.0,1.96838378906,-2.9296875
0.53125,-0.921875,0.00390625,0.00762939453125,1.953125,0.0
0.53125,-0.9208984375,0.00390625,0.0,0.1220703125,0.0
0.53125,-0.921875,0.005859375,0.0152587890625,1.953125,-2.83813476562
0.53125,-0.921875,0.00244140625,0.30517578125,2.01416015625,0.0
0.5390625,-0.921875,0.00439453125,0.0,0.0152587890625,-2.28881835938
0.53955078125,-0.921875,0.0,0.1220703125,1.953125,-2.67028808594
0.53173828125,-0.921875,0.0,0.06103515625,0.534057617188,-2.41088867188
0.53564453125,-0.921875,0.00048828125,0.0,1.96838378906,-2.8076171875
0.53125,-0.935546875,0.000244140625,0.244140625,2.01416015625,0.0762939453125
0.53125,-0.921875,0.0,0.495910644531,2.01416015625,-2.44140625
0.5322265625,-0.921875,0.0078125,0.48828125,1.953125,0.00762939453125
0.533203125,-0.919677734375,0.00830078125,0.48828125,1.953125,-2.8076171875
0.5390625,-0.921875,0.0078125,0.0228881835938,1.96075439453,-2.92205810547
0.5322265625,-0.921875,0.000244140625,0.9765625,2.08282470703,-2.38037109375
0.53125,-0.9375,0.00048828125,0.244140625,1.953125,-2.9296875
0.53125,-0.93701171875,0.0,0.259399414062,1.953125,0.0
0.5390625,-0.9365234375,0.001953125,0.0,1.953125,-2.685546875
0.53125,-0.921875,0.0078125,0.1220703125,1.953125,-2.85339355469
0.53125,-0.919921875,0.0087890625,0.1220703125,1.953125,-2.8076171875
0.53515625,-0.9375,0.005859375,0.244140625,2.44140625,-2.9296875
0.53515625,-0.919677734375,0.0009765625,0.030517578125,1.953125,-2.44140625
0.53125,-0.9345703125,0.0,1.06811523438,2.197265625,-2.9296875
0.53515625,-0.921875,0.0078125,0.282287597656,1.99127197266,0.0
0.5390625,-0.9375,0.0,0.137329101562,2.05230712891,-2.77709960938
0.539306640625,-0.921630859375,0.008056640625,0.244140625,1.953125,0.06103515625
0.5322265625,-0.935546875,0.0078125,0.0,1.96075439453,-2.44140625
0.5322265625,-0.92138671875,0.0078125,0.0,1.96075439453,0.0
0.5390625,-0.92041015625,0.0,0.0381469726562,1.96075439453,0.0
0.5361328125,-0.92138671875,0.0009765625,0.3662109375,0.06103515625,0.0
0.5390625,-0.921875,0.0009765625,0.1220703125,2.32696533203,-2.44140625
0.53173828125,-0.921875,0.0,0.244140625,2.197265625,0.0
0.5390625,-0.92041015625,0.0,0.396728515625,1.953125,-2.67028808594
0.5390625,-0.921875,0.0,0.0381469726562,1.953125,0.0
0.539306640625,-0.9189453125,0.0,0.54931640625,0.0,0.030517578125
0.53125,-0.92138671875,0.01025390625,0.137329101562,1.99890136719,0.0
0.53125,-0.9375,0.00048828125,0.0,1.953125,-2.685546875
0.53173828125,-0.921875,0.0,0.244140625,1.96838378906,0.0152587890625
0.53125,-0.921875,0.0078125,0.0,1.953125,-2.9296875
0.5390625,-0.92138671875,0.001953125,0.9765625,1.953125,0.0152587890625
0.53125,-0.931640625,0.00390625,0.0,0.137329101562,-2.9296875
0.53125,-0.92138671875,0.0,0.0,1.96075439453,-2.44140625
0.533203125,-0.93359375,0.0,0.0991821289062,1.953125,0.0
0.5361328125,-0.921875,0.00830078125,0.0228881835938,1.96838378906,-2.79998779297
0.5322265625,-0.921875,0.001953125,0.06103515625,1.953125,-2.83813476562
0.53955078125,-0.93212890625,0.00390625,0.1220703125,0.18310546875,0.030517578125
0.5390625,-0.921875,0.0078125,0.244140625,1.98364257812,-2.3193359375
0.0,-0.921630859375,0.0078125,0.244140625,2.02941894531,-2.67791748047
0.5361328125,-0.9375,0.0,0.9765625,1.96838378906,-2.77709960938
0.53125,-0.9375,0.00390625,0.06103515625,1.96075439453,-2.44140625
0.53173828125,-0.9375,0.001953125,0.030517578125,0.3662109375,-2.44140625
0.537109375,-0.921875,0.0,0.48828125,1.953125,0.06103515625
0.531494140625,-0.921875,0.0078125,0.9765625,2.01416015625,-2.44140625
0.5390625,-0.9375,0.000732421875,1.00708007812,1.96838378906,-2.9296875
0.53515625,-0.93701171875,0.000244140625,0.495910644531,2.02941894531,-2.89916992188
0.53125,-0.9208984375,0.00048828125,0.9765625,2.13623046875,-2.3193359375
0.53125,-0.921875,0.001953125,0.137329101562,0.335693359375,-2.44140625
0.533203125,-0.921875,0.000244140625,0.244140625,2.197265625,-2.92205810547
0.53369140625,-0.919921875,0.00390625,0.251770019531,0.0,0.0
0.53125,-0.9375,0.0078125,0.244140625,1.953125,-2.31170654297
0.53564453125,-0.921875,0.0078125,0.274658203125,2.44903564453,0.0152587890625
0.53125,-0.91796875,0.0009765625,0.9765625,2.01416015625,-2.67791748047
0.53125,-0.917724609375,0.0,0.244140625,1.953125,-2.34985351562
0.53125,-0.93359375,0.00390625,0.129699707031,1.953125,-2.38037109375
0.533203125,-0.921875,0.0,0.0,1.98364257812,-2.44140625
0.5390625,-0.93408203125,0.009765625,0.48828125,0.06103515625,0.0
0.534423828125,-0.921875,0.0009765625,0.0152587890625,1.96075439453,0.0
0.53515625,-0.919921875,0.0,0.9765625,0.0,0.0
0.539306640625,-0.916015625,0.0078125,0.0,1.98364257812,-2.91442871094
0.5390625,-0.921875,0.001953125,0.9765625,2.01416015625,-2.9296875
0.53515625,-0.9375,0.0,0.0,1.96838378906,0.0152587890625
0.5390625,-0.9208984375,0.001220703125,0.0,0.0152587890625,-2.9296875
0.531494140625,-0.921875,0.0078125,0.030517578125,1.96075439453,-2.9296875
0.53125,-0.921630859375,0.0009765625,0.030517578125,2.21252441406,-2.8076171875
0.53125,-0.919921875,0.00244140625,0.48828125,0.244140625,0.0
0.5390625,-0.935546875,0.0078125,0.167846679688,1.98364257812,0.0381469726562
0.53125,-0.9375,0.0078125,0.0,2.01416015625,-2.44140625
0.53125,-0.921875,0.0,0.617980957031,1.953125,0.0
0.53955078125,-0.919921875,0.0,0.00762939453125,1.953125,0.030517578125
0.5390625,-0.921875,0.0009765625,0.48828125,1.953125,-2.44140625
0.531494140625,-0.921630859375,0.0078125,0.48828125,1.953125,-2.44140625
0.53125,-0.921875,0.0,0.9765625,1.953125,0.0
0.5390625,-0.921875,0.0009765625,0.991821289062,1.96838378906,-2.44140625
0.531494140625,-0.921630859375,0.0,0.244140625,1.953125,0.0
0.53125,-0.921875,0.0078125,0.0,1.953125,0.0
0.53125,-0.921630859375,0.0078125,0.0152587890625,1.96838378906,-2.91442871094
0.5400390625,-0.921875,0.0078125,0.244140625,1.96075439453,0.030517578125
0.53125,-0.921875,0.0078125,0.244140625,2.01416015625,0.00762939453125
0.533203125,-0.921875,0.001953125,0.06103515625,0.030517578125,0.0
0.5322265625,-0.921875,0.0078125,0.0152587890625,2.03704833984,-2.41088867188
0.5390625,-0.935302734375,0.00048828125,1.00708007812,2.01416015625,-2.85339355469
0.5361328125,-0.921875,0.0,0.0,0.48828125,0.0
0.53125,-0.93359375,0.00390625,1.03759765625,1.96838378906,0.0
0.53125,-0.921875,0.0,0.0,1.953125,-2.9296875
0.53125,-0.9208984375,0.0,0.320434570312,2.197265625,-2.44140625
0.53369140625,-0.937255859375,0.0078125,0.48828125,2.10571289062,-2.685546875
0.53125,-0.921875,0.0,0.244140625,1.96075439453,-2.79235839844
0.53125,-0.921875,0.0078125,0.244140625,1.953125,-2.9296875
0.5390625,-0.92138671875,0.0,0.48828125,1.99127197266,-2.42614746094
0.53125,-0.921875,0.00244140625,0.1220703125,2.0751953125,-2.685546875
0.5390625,-0.921630859375,0.01025390625,0.9765625,1.953125,-2.3193359375
0.53759765625,-0.921875,0.0,0.1220703125,1.953125,0.0
0.5390625,-0.921875,0.004150390625,0.778198242188,2.01416015625,-2.8076171875
0.533203125,-0.921875,0.0078125,0.984191894531,1.953125,-2.8076171875
0.53955078125,-0.921875,0.005859375,0.48828125,1.98364257812,-2.44140625
0.5390625,-0.9208984375,0.001220703125,0.0,2.01416015625,-2.67028808594
0.532470703125,-0.921875,0.0009765625,0.0,1.953125,-2.44140625
0.53125,-0.921630859375,0.0078125,0.244140625,2.0751953125,-2.54821777344
0.5390625,-0.91796875,0.0078125,0.0152587890625,1.953125,-2.44140625
0.53515625,-0.921875,0.0,0.244140625,1.953125,0.06103515625
0.53955078125,-0.921875,0.001953125,0.091552734375,1.953125,0.00762939453125
0.53125,-0.92138671875,0.0,0.9765625,2.01416015625,-2.37274169922
0.53955078125,-0.92138671875,0.0,0.18310546875,1.953125,0.0152587890625
0.53564453125,-0.9375,0.00830078125,0.00762939453125,2.0751953125,-2.5634765625
0.53125,-0.921875,0.00048828125,0.9765625,2.26593017578,-2.3193359375
0.53125,-0.921875,0.01220703125,0.9765625,1.953125,0.0
0.5390625,-0.919921875,0.001953125,0.244140625,0.0381469726562,-2.90679931641
0.53173828125,-0.9326171875,0.0,0.0152587890625,2.0751953125,-2.87628173828
0.53125,-0.921630859375,0.00048828125,0.732421875,1.97601318359,-2.44140625
0.53125,-0.921875,0.00830078125,0.48828125,2.0751953125,-2.685546875
0.53564453125,-0.921875,0.0078125,0.0,1.953125,-2.44140625
0.5390625,-0.921875,0.0078125,0.1220703125,1.953125,-2.8076171875
0.53173828125,-0.921875,0.00390625,0.00762939453125,0.0,-2.3193359375
0.53125,-0.921875,0.0,0.1220703125,2.22778320312,-2.44140625
0.533203125,-0.92138671875,0.0,0.244140625,1.96075439453,0.0
0.539306640625,-0.9375,0.008544921875,0.1220703125,1.953125,0.0
0.53125,-0.921630859375,0.008056640625,0.48828125,1.953125,-2.3193359375
0.53125,-0.921875,0.0078125,0.991821289062,1.953125,-2.44140625
0.5390625,-0.93310546875,0.0,0.312805175781,1.96838378906,0.0
0.5390625,-0.931640625,0.0078125,0.244140625,1.953125,-2.44140625
0.5322265625,-0.921875,0.001220703125,0.06103515625,1.96838378906,0.0
0.53125,-0.92041015625,0.000244140625,0.244140625,0.48828125,0.0
0.53125,-0.921875,0.0,0.0,2.0751953125,-2.44140625
0.531494140625,-0.92138671875,0.0078125,0.0,2.01416015625,0.0
0.5322265625,-0.93212890625,0.000244140625,0.9765625,1.953125,0.00762939453125
0.533203125,-0.9375,0.001953125,0.1220703125,1.953125,-2.44140625
0.5390625,-0.919921875,0.0,0.244140625,1.953125,-2.8076171875
0.5390625,-0.93359375,0.008056640625,0.0,0.0,-2.44140625
0.5322265625,-0.921875,0.0,0.0,1.953125,-2.9296875
0.53125,-0.921630859375,0.001953125,0.0152587890625,1.953125,-2.9296875
0.531494140625,-0.9208984375,0.0,0.137329101562,0.48828125,0.0
0.5390625,-0.937255859375,0.0078125,0.48828125,1.953125,0.0
0.53125,-0.91796875,0.0,0.251770019531,2.3193359375,-2.9296875
0.5322265625,-0.93701171875,0.00390625,0.48828125,2.0751953125,0.244140625
0.5390625,-0.920654296875,0.001953125,0.3662109375,1.98364257812,-2.44140625
0.53125,-0.919921875,0.00048828125,0.9765625,2.44140625,0.00762939453125
0.53125,-0.921875,0.0,0.244140625,1.953125,-2.36511230469
0.531494140625,-0.919921875,0.000244140625,0.030517578125,1.953125,-2.8076171875
0.53173828125,-0.919677734375,0.0078125,0.244140625,1.98364257812,0.00762939453125
0.53125,-0.921875,0.0,0.06103515625,1.96075439453,-2.9296875
0.53125,-0.921875,0.000244140625,0.0152587890625,2.03704833984,-2.9296875
0.53125,-0.91796875,0.0,0.732421875,1.953125,-2.8076171875
0.53125,-0.921630859375,0.001953125,0.1220703125,0.244140625,-2.44140625
0.53173828125,-0.91796875,0.0,0.0,2.01416015625,0.0
0.53125,-0.921875,0.0078125,0.152587890625,1.96075439453,-2.43377685547
0.531494140625,-0.919921875,0.0,0.0,2.01416015625,-1.953125
0.53125,-0.921630859375,0.0078125,0.9765625,2.01416015625,-2.44140625
0.53125,-0.921630859375,0.0,0.244140625,1.98364257812,-2.3193359375
0.53125,-0.921875,0.00390625,0.06103515625,1.96838378906,-2.92205810547
0.531494140625,-0.93359375,0.0078125,0.0,1.98364257812,-2.44140625
0.53515625,-0.921875,0.0,0.0,2.0751953125,-2.92205810547
0.5322265625,-0.921875,0.001953125,0.1220703125,1.96075439453,-2.9296875
0.5390625,-0.9208984375,0.00390625,0.48828125,2.10571289062,-2.8076171875
0.5322265625,-0.92138671875,0.00390625,0.0,1.953125,0.0
0.5400390625,-0.919677734375,0.0,0.9765625,1.953125,-2.685546875
0.5390625,-0.93359375,0.009765625,0.06103515625,2.04467773438,-2.43377685547
0.531982421875,-0.921875,0.0009765625,0.9765625,1.953125,-2.38037109375
0.53125,-0.919921875,0.0,0.0457763671875,0.6103515625,-2.38037109375
0.53125,-0.9365234375,0.01220703125,0.0,1.98364257812,-2.89916992188
0.5322265625,-0.933349609375,0.0078125,0.0686645507812,1.953125,-2.89916992188
0.533447265625,-0.921875,0.0,0.732421875,2.01416015625,-2.42614746094
0.5390625,-0.933349609375,0.0078125,0.9765625,2.197265625,0.0
0.53125,-0.921875,0.0087890625,0.1220703125,1.96838378906,-2.44140625
0.53125,-0.92138671875,0.0,0.0,0.0,-2.37274169922
0.5390625,-0.921875,0.008056640625,0.244140625,1.953125,-2.38037109375
0.5390625,-0.921630859375,0.0078125,0.06103515625,2.01416015625,-2.9296875
0.53125,-0.93359375,0.00244140625,0.0,2.01416015625,-2.44140625
0.532958984375,-0.9208984375,0.0,0.0,1.96838378906,-2.9296875
0.5322265625,-0.9375,0.0,0.244140625,1.953125,-2.685546875
0.539306640625,-0.921875,0.0,0.00762939453125,2.02178955078,0.0
0.531494140625,-0.92138671875,0.000244140625,0.0,1.953125,-2.42614746094
0.533203125,-0.921875,0.00390625,0.244140625,1.98364257812,-2.44140625
0.5390625,-0.921875,0.0078125,0.0228881835938,2.21252441406,0.0
0.5322265625,-0.92138671875,0.0009765625,0.274658203125,1.96838378906,-2.54821777344
0.5400390625,-0.919921875,0.00830078125,0.18310546875,0.30517578125,-2.44140625
0.53173828125,-0.921875,0.008056640625,0.244140625,1.953125,-2.8076171875
0.533203125,-0.921875,0.0107421875,0.0,1.953125,-2.34222412109
0.53173828125,-0.9208984375,0.0,0.00762939453125,1.953125,-2.44140625
0.53173828125,-0.92138671875,0.00244140625,0.06103515625,1.953125,-2.9296875
0.5341796875,-0.921875,0.0,0.9765625,1.953125,-2.3193359375
0.0009765625,-0.9375,0.0478515625,0.9765625,0.289916992188,0.030517578125
0.5,-0.999755859375,0.001953125,0.251770019531,3.92150878906,0.1220703125
0.515625,-1.0,0.0,0.0,0.1220703125,-3.90625
0.541015625,-0.929443359375,0.001953125,0.152587890625,0.0686645507812,-1.8310546875
0.539306640625,-0.921875,0.001953125,0.0,0.030517578125,-2.0751953125
0.0,-0.921875,0.0,0.0,2.0751953125,0.0
0.5,-0.93310546875,0.0,0.030517578125,1.953125,0.06103515625
0.53173828125,-0.921875,0.0,0.030517578125,2.16674804688,0.152587890625
0.5322265625,-0.937255859375,0.000244140625,0.0,0.0,0.0
0.531494140625,-0.920654296875,0.0,0.48828125,1.98364257812,-2.9296875
0.54345703125,-0.921875,0.008056640625,0.9765625,1.953125,-2.685546875
0.533203125,-0.921875,0.00048828125,0.0,0.503540039062,0.1220703125
0.0,-0.921875,0.0,0.06103515625,0.48828125,0.0
0.533203125,-0.921875,0.0,0.9765625,1.953125,-2.9296875
0.5390625,-0.921875,0.001953125,0.3662109375,2.197265625,-2.53295898438
0.53125,-0.921875,0.009765625,0.06103515625,0.00762939453125,0.0
0.5390625,-0.921875,0.0,1.00708007812,1.953125,0.244140625
0.0,-0.919921875,0.0,0.0,2.0751953125,-2.44140625
0.5390625,-0.919921875,0.0087890625,0.0457763671875,1.953125,-2.44140625
0.53125,-0.9375,0.008056640625,0.0,0.030517578125,0.54931640625
0.53515625,-0.9375,0.001953125,0.991821289062,0.244140625,-2.42614746094
0.53515625,-0.9375,0.0078125,0.0,2.10571289062,-2.9296875
0.5400390625,-0.921630859375,0.00244140625,0.0,1.953125,-2.89916992188
0.533203125,-0.9375,0.008056640625,0.48828125,0.518798828125,0.48828125
0.53125,-0.921875,0.00390625,0.259399414062,1.953125,-2.685546875
0.53125,-0.921875,0.001953125,0.0,2.197265625,-2.9296875
0.5400390625,-0.92138671875,0.0,0.00762939453125,1.953125,0.00762939453125
0.53125,-0.921630859375,0.0078125,0.0,0.244140625,0.244140625
0.53125,-0.921875,0.0,0.0,2.10571289062,-2.37274169922
0.53955078125,-0.921875,0.00048828125,0.0457763671875,2.0751953125,-2.3193359375
0.5390625,-0.9375,0.0,0.0,0.244140625,0.0152587890625
0.53125,-0.9375,0.005859375,0.0381469726562,0.0381469726562,-2.41088867188
0.537109375,-0.9375,0.00390625,0.0,1.953125,-2.9296875
0.53125,-0.921875,0.0078125,0.1220703125,1.96075439453,0.0
0.53125,-0.921875,0.001953125,0.030517578125,2.01416015625,0.244140625
0.53173828125,-0.921630859375,0.0,0.0,1.96838378906,-2.85339355469
0.53125,-0.91796875,0.00048828125,0.48828125,1.953125,-2.9296875
0.5390625,-0.921875,0.00439453125,0.0,0.244140625,0.0152587890625
0.0,-0.810546875,0.0009765625,0.06103515625,2.96020507812,0.0
0.0,0.0,0.0,47.8591918945,0.0991821289062,0.48828125
0.53515625,-0.9375,0.064453125,0.259399414062,0.0,-105.46875
0.0,-1.0,0.0,1.98364257812,0.244140625,8.7890625
0.0,-1.0,0.0009765625,110.504150391,0.0,1.96838378906
0.0,-1.0,0.0625,0.244140625,0.0,-29.296875
0.5,0.047607421875,0.001220703125,0.0457763671875,0.06103515625,0.48828125
0.00146484375,-0.96875,0.00048828125,1.953125,0.1220703125,0.244140625
0.0,-0.998046875,0.00048828125,1.03759765625,0.0,-3.86047363281
0.0,-0.984375,0.000244140625,0.030517578125,0.00762939453125,0.0
0.0,-1.0,0.00048828125,2.21252441406,0.0152587890625,0.9765625
0.0,-1.0,0.0625,0.54931640625,0.0,-3.90625
0.03125,-0.994140625,0.0,0.0,0.18310546875,0.030517578125
0.0009765625,-1.0,0.078125,0.747680664062,0.0,0.06103515625
0.0,-0.984375,0.0625,0.1220703125,0.762939453125,-1.81579589844
0.0,-1.0,0.0,0.0686645507812,0.999450683594,0.00762939453125
0.00390625,-0.984375,0.0625,0.244140625,2.197265625,-2.92205810547
0.0,-0.9990234375,0.0048828125,0.0,0.244140625,-1.89208984375
0.0,-1.0,0.06640625,0.0,1.953125,0.0
0.000244140625,-0.9990234375,0.066650390625,0.503540039062,1.96838378906,-2.8076171875
0.0078125,-0.983642578125,0.002197265625,0.06103515625,1.96075439453,-1.93786621094
0.0,-1.0,0.0712890625,0.0,2.01416015625,0.244140625
0.00390625,-0.982421875,0.07275390625,0.0152587890625,2.44140625,0.0
0.0,-0.9833984375,0.0625,0.0152587890625,2.13623046875,-2.9296875
0.0,-0.99951171875,0.074951171875,0.495910644531,1.953125,-2.79998779297
0.000244140625,-0.998046875,0.0673828125,0.244140625,1.98364257812,0.0
0.0,-0.98388671875,0.0634765625,0.244140625,1.953125,-2.38037109375
0.03125,-1.0,0.064453125,0.0,0.0,-3.7841796875
0.00439453125,-0.998046875,0.0,1.953125,0.244140625,-1.64794921875
0.0009765625,-0.998046875,0.0703125,0.9765625,1.96075439453,-2.92205810547
0.0,-1.0,0.0625,0.48828125,2.45666503906,-1.953125
0.0,-0.984375,0.064453125,0.0152587890625,0.0,-2.44140625
0.031494140625,-0.984375,0.0625,0.1220703125,0.48828125,-2.89916992188
0.00048828125,-0.9990234375,0.0625,0.48828125,1.96838378906,0.0
0.00390625,-1.0,0.063232421875,0.48828125,0.0,-2.91442871094
0.0,-0.99951171875,0.070556640625,0.0,0.0,-2.9296875
0.0078125,-0.99609375,0.080078125,0.00762939453125,2.0751953125,-2.3193359375
0.0322265625,-1.0,0.0673828125,0.0,2.0751953125,-2.42614746094
0.035400390625,-0.99609375,0.08154296875,-0.79345703125,0.0,-3.38745117188
0.033203125,-0.99951171875,0.0625,0.244140625,0.1220703125,-5.08880615234
0.03125,-0.984375,0.0625,1.953125,0.0152587890625,-1.953125
0.0,-0.99609375,0.0,0.030517578125,2.44903564453,-2.41088867188
0.03759765625,-1.0,0.0625,0.9765625,1.953125,-2.9296875
0.0,-0.984375,0.0634765625,0.495910644531,1.953125,-1.953125
0.03125,-0.984375,0.0625,0.244140625,2.01416015625,0.1220703125
0.00244140625,-0.997802734375,0.0712890625,0.48828125,2.685546875,0.0
0.0009765625,-0.9990234375,0.0703125,0.06103515625,0.0152587890625,-2.44140625
0.033203125,-0.984375,0.0703125,0.0,0.518798828125,-2.44140625
0.03125,-0.982421875,0.0703125,0.0,0.1220703125,0.0
0.001220703125,-1.0,0.0703125,0.1220703125,0.0,0.0
0.0322265625,-0.9921875,0.0625,0.0,0.0,-2.73895263672
0.03759765625,-0.99609375,0.0703125,0.0,0.0,-2.91442871094
0.00390625,-0.999755859375,0.0,0.244140625,0.503540039062,0.00762939453125
0.03125,-0.99609375,0.0703125,0.137329101562,0.0,-2.9296875
0.03125,-0.99609375,0.06640625,0.991821289062,0.1220703125,-2.44140625
0.037109375,-0.9990234375,0.06640625,0.511169433594,0.0152587890625,-2.67791748047
0.0390625,-0.984375,0.0,0.48828125,0.0,0.06103515625
0.033203125,-1.0,0.0703125,0.0,0.0,-2.44140625
0.03125,-1.0,0.0625,0.0,0.48828125,-2.65502929688
0.0,-0.87060546875,0.001953125,1.953125,0.0,-18.5470581055
0.0,-0.84375,0.0,16.11328125,78.125,0.54931640625
0.04736328125,-0.875,0.0,17.578125,2.22778320312,1.96075439453
0.0068359375,-0.999755859375,0.0,0.732421875,2.197265625,-31.2118530273
0.5,0.0,0.0078125,0.556945800781,0.0,-21.4691162109
0.015869140625,-0.84375,0.0,15.998840332,1.46484375,0.00762939453125
0.0,-0.87451171875,0.064453125,41.015625,0.0,0.0
0.0,-0.93701171875,0.0,0.0,0.244140625,-21.97265625
0.0,-0.90625,0.000244140625,9.765625,0.0,0.0762939453125
0.002197265625,-0.812255859375,0.0,0.0,2.197265625,20.3857421875
0.533203125,-0.99609375,0.00048828125,0.0,21.7895507812,0.030517578125
0.015625,-0.7802734375,0.015625,31.8908691406,15.625,0.0152587890625
0.0078125,-0.990234375,0.0078125,0.9765625,0.0,0.495910644531
0.0,-0.87109375,0.00048828125,39.1845703125,0.381469726562,4.8828125
0.064697265625,-1.0,0.03125,6.8359375,13.671875,8.80432128906
0.0,-0.992919921875,0.0625,47.8668212891,0.06103515625,0.0
0.5078125,-0.86669921875,0.03125,0.06103515625,8.57543945312,0.0
0.5,-0.875,0.00048828125,0.0,0.259399414062,31.25
0.505859375,-0.8544921875,0.0,0.0,1.220703125,16.6015625
0.093994140625,-0.874755859375,0.0009765625,8.30078125,2.57873535156,3.90625
0.0,-0.80859375,0.046875,0.0152587890625,0.0,0.0
0.5,0.000732421875,0.0078125,0.030517578125,0.1220703125,23.4375
0.002197265625,0.00048828125,0.0048828125,1.48010253906,0.137329101562,15.6402587891
0.001953125,0.00048828125,0.064453125,9.765625,17.5857543945,0.0
0.513671875,0.015625,0.016845703125,0.48828125,1.59454345703,0.67138671875
0.5322265625,-0.8046875,0.004150390625,27.3742675781,0.0,2.44140625
0.50048828125,0.003173828125,0.001220703125,2.197265625,0.1220703125,8.80432128906
0.533203125,0.01318359375,0.0,26.3671875,0.0,9.78088378906
0.53125,0.0625,0.00048828125,0.259399414062,0.0,0.0228881835938
0.5,0.078125,0.00390625,0.0,4.150390625,0.152587890625
0.504638671875,0.063720703125,0.07421875,0.0,0.1220703125,1.61743164062
0.5,0.0009765625,0.062744140625,11.71875,1.48010253906,0.0
0.500244140625,0.06298828125,0.00048828125,0.18310546875,0.0,0.198364257812
0.5,0.0,0.000244140625,0.0,10.8337402344,0.0
0.501953125,0.0625,0.0,0.030517578125,0.00762939453125,-2.67791748047
0.5,0.071044921875,0.0009765625,1.953125,0.0,0.1220703125
0.5,0.087890625,0.0029296875,8.7890625,0.274658203125,0.0
0.50390625,0.078369140625,0.0703125,-1.953125,0.518798828125,0.0
0.5,0.0625,0.0,0.1220703125,0.0,0.9765625
0.5,0.0625,0.001953125,-14.4577026367,5.126953125,0.9765625
0.50439453125,0.078125,0.078857421875,0.9765625,0.312805175781,0.0152587890625
0.5,0.0625,0.05078125,0.0,2.08282470703,-3.89862060547
0.5009765625,0.125,0.00048828125,4.40979003906,0.06103515625,2.197265625
0.5,0.072265625,0.0048828125,0.0457763671875,0.00762939453125,-7.79724121094
0.5,0.0,0.001953125,2.9296875,0.06103515625,0.00762939453125
0.5,0.03515625,0.0625,0.0,1.46484375,0.0
0.50390625,0.06689453125,0.001953125,-11.1083984375,0.0,-6.82067871094
0.515625,0.086181640625,0.015625,0.0,1.12915039062,0.030517578125
0.53125,0.07861328125,0.001953125,0.0,0.030517578125,0.1220703125
0.5009765625,0.0625,0.00439453125,0.167846679688,3.92150878906,0.48828125
0.53125,0.0625,0.00146484375,0.0457763671875,0.6103515625,-2.77709960938
0.5,0.06298828125,0.0,1.98364257812,0.0839233398438,0.0
0.53125,0.0625,0.002197265625,2.685546875,0.00762939453125,-1.44958496094
0.533203125,0.078125,0.00048828125,0.030517578125,0.0,0.0
0.515625,0.078125,0.0,2.9296875,0.0,0.0381469726562
0.53125,0.063232421875,0.0,0.1220703125,0.0,0.030517578125
0.531982421875,0.078125,0.0078125,1.953125,0.244140625,-1.92260742188
0.50390625,0.086181640625,0.0078125,0.030517578125,0.0,0.0
0.53125,0.08203125,0.00390625,0.0,0.0,0.0
0.533203125,0.078125,0.0,0.06103515625,1.953125,-3.40270996094
0.0234375,0.0625,0.015625,0.0,1.98364257812,0.0
0.5,0.015625,0.000244140625,0.00762939453125,0.06103515625,-2.685546875
0.5166015625,0.01953125,0.017578125,0.0,0.495910644531,0.0
0.5322265625,0.078125,0.0,0.0,0.00762939453125,0.244140625
0.53125,0.09375,0.00048828125,-9.765625,0.991821289062,-7.6904296875
0.533447265625,0.0625,0.00390625,-3.662109375,3.93676757812,0.0
0.5234375,0.080078125,0.0,0.0,0.00762939453125,0.0
0.5,0.078125,0.0078125,0.0,0.0,0.0
0.511962890625,0.06640625,0.005859375,0.518798828125,0.1220703125,0.091552734375
0.531494140625,0.063232421875,0.015625,1.98364257812,0.0,-6.80541992188
0.501953125,0.015625,0.078125,0.48828125,0.129699707031,-6.591796875
0.5,0.062744140625,0.0,0.274658203125,0.0152587890625,0.503540039062
0.531494140625,0.078125,0.00048828125,-3.7841796875,0.0,0.0381469726562
0.50390625,0.078125,0.009765625,0.0152587890625,0.0,0.48828125
0.500244140625,0.068359375,0.001953125,0.06103515625,0.030517578125,0.0
0.500244140625,0.0625,0.00439453125,0.0,2.0751953125,0.511169433594
0.53125,0.0625,0.005859375,0.030517578125,2.21252441406,-2.9296875
0.53173828125,0.0703125,0.0,-2.89916992188,0.00762939453125,-3.34930419922
0.5068359375,0.064453125,0.0078125,0.0,1.98364257812,-1.953125
0.53125,0.0625,0.001953125,4.150390625,0.0,-1.708984375
0.53173828125,0.0703125,0.0087890625,0.0,0.244140625,-2.9296875
0.519775390625,0.078125,0.0,0.0,1.48010253906,-3.90625
0.5,0.0625,0.015625,0.732421875,3.93676757812,0.0
0.5,0.0703125,0.0,0.00762939453125,0.9765625,0.0
0.5,0.0625,0.0,0.48828125,2.04467773438,-6.8359375
0.53125,0.0625,0.004150390625,0.0,0.328063964844,0.0
0.5,0.0703125,0.000244140625,0.1220703125,0.129699707031,-3.662109375
0.532470703125,0.0625,0.00390625,0.06103515625,0.00762939453125,0.0381469726562
0.5,0.0625,0.0,7.8125,0.48828125,-2.67028808594
0.50146484375,0.0625,0.0,0.00762939453125,3.91387939453,0.0152587890625
0.500244140625,0.062744140625,0.001953125,0.244140625,1.99127197266,0.030517578125
0.505859375,0.01611328125,0.00390625,-6.8359375,1.03759765625,0.0
0.533203125,0.07421875,0.0,0.06103515625,0.0152587890625,0.0
0.53515625,0.078125,0.0009765625,0.0,0.6103515625,-4.7607421875
0.5,0.078369140625,0.0,0.0,0.0,-3.86047363281
0.517578125,0.0625,0.015869140625,0.0152587890625,1.953125,-1.51824951172
0.53125,0.0625,0.0087890625,3.91387939453,1.953125,-2.44140625
0.515625,0.0625,0.0,1.96075439453,1.96075439453,-2.9296875
0.5322265625,0.078125,0.0,1.953125,0.6103515625,-1.94549560547
0.515625,0.07958984375,0.0,1.220703125,1.96075439453,-3.86047363281
0.53125,0.06494140625,0.001220703125,0.9765625,0.030517578125,0.00762939453125
0.53125,0.0625,0.002197265625,0.06103515625,0.0,0.0
0.515625,0.0625,0.0,0.0,0.0,0.00762939453125
0.5078125,0.0625,0.000732421875,4.8828125,0.091552734375,-2.9296875
0.515625,0.067626953125,0.00390625,2.9296875,0.579833984375,0.0
0.5,0.078125,0.001953125,-1.8310546875,0.732421875,-1.67846679688
0.5078125,0.0625,0.0205078125,0.0,1.96075439453,-1.953125
0.5078125,0.082275390625,0.0,1.953125,0.0,0.1220703125
0.50830078125,0.0625,0.0,6.04248046875,0.00762939453125,-0.717163085938
0.50830078125,0.078125,0.00390625,5.859375,0.0,0.0
0.5,0.067626953125,0.0,4.8828125,0.0,0.0228881835938
0.5244140625,0.078125,0.00146484375,0.640869140625,0.0,-3.2958984375
0.515625,0.0625,0.017578125,4.04357910156,0.0,0.0
0.517578125,0.0625,0.0,3.90625,0.0152587890625,0.48828125
0.5,0.062744140625,0.0,4.43267822266,0.244140625,0.0152587890625
0.53125,0.0625,0.000244140625,5.87463378906,1.96075439453,0.030517578125
0.5078125,0.0625,0.0166015625,5.126953125,2.08282470703,0.0
0.5048828125,0.06689453125,0.0,0.18310546875,1.953125,-3.41033935547
0.5341796875,0.0625,0.015625,3.90625,0.0,0.244140625
0.515625,0.07421875,0.010498046875,0.0,1.953125,-1.953125
0.517578125,0.0625,0.0078125,0.48828125,0.06103515625,0.00762939453125
0.50244140625,0.06640625,0.00390625,9.78851318359,0.06103515625,0.0
0.5322265625,0.06298828125,0.00048828125,0.0,0.0,0.137329101562
0.5,0.0625,0.015869140625,8.36181640625,0.0,-0.244140625
0.501953125,0.06640625,0.0,0.0,0.0,0.0381469726562
0.50048828125,0.078125,0.015625,5.859375,0.030517578125,0.06103515625
0.5,0.0810546875,0.0,3.90625,0.244140625,-1.46484375
0.515625,0.064697265625,0.00146484375,0.0,0.06103515625,0.0228881835938
0.5068359375,0.0625,0.00390625,7.84301757812,0.030517578125,0.0
0.517578125,0.0625,0.078125,0.00762939453125,0.00762939453125,0.244140625
0.51611328125,0.0625,0.0009765625,0.0,0.0,-2.89916992188
0.515625,0.064453125,0.000244140625,0.0,0.0,0.030517578125
0.5,0.0625,0.015625,0.0,0.0,0.0152587890625
0.5,0.12890625,0.0,0.503540039062,4.0283203125,-3.90625
0.53125,0.06640625,0.004150390625,2.0751953125,0.0152587890625,0.48828125
0.50244140625,0.0625,0.08642578125,0.48828125,0.1220703125,0.0
0.501953125,0.0625,0.0,-2.8076171875,0.48828125,-4.7607421875
0.5,0.06640625,0.000244140625,-3.90625,0.0,0.244140625
0.5,0.0625,0.0,0.251770019531,0.0,0.0
0.5322265625,0.0625,0.0,0.0228881835938,0.0,-3.90625
0.5,0.125,0.0,0.54931640625,1.98364257812,-2.9296875
0.501220703125,0.0625,0.0,0.0,0.137329101562,0.503540039062
0.5,0.0859375,0.0,0.0,0.0,0.1220703125
0.50048828125,0.06494140625,0.001220703125,0.0,0.0,-3.90625
0.50390625,0.0625,0.00390625,0.06103515625,0.00762939453125,0.091552734375
0.515625,0.0625,0.0859375,0.244140625,0.1220703125,0.0
0.5,0.0625,0.00048828125,0.0,0.0,-4.85229492188
0.5,0.0625,0.0078125,2.50244140625,0.274658203125,0.0
0.5234375,0.0625,0.00390625,0.0,0.0152587890625,0.0
0.517578125,0.0625,0.001220703125,0.48828125,2.197265625,-2.67028808594
0.51953125,0.078125,0.0,-1.89208984375,0.0,-3.63159179688
0.5,0.06298828125,0.0,0.0,2.44903564453,0.0152587890625
0.51953125,0.078125,0.00048828125,0.48828125,2.08282470703,0.030517578125
0.5166015625,0.062744140625,0.00048828125,0.9765625,0.0,-1.953125
0.52392578125,0.0625,0.0078125,3.90625,0.0,-0.9765625
0.5234375,0.07861328125,0.01953125,4.8828125,0.740051269531,0.091552734375
0.5166015625,0.0634765625,0.00390625,1.03759765625,0.030517578125,-1.953125
0.5234375,0.08203125,0.0,0.0,0.48828125,-1.708984375
0.5,0.07958984375,0.078125,2.05993652344,0.0,-3.662109375
0.50048828125,0.078125,0.015625,4.39453125,0.48828125,-1.94549560547
0.5,0.062744140625,0.020751953125,2.96020507812,0.0,0.06103515625
0.5009765625,0.0625,0.0,0.0,0.244140625,-1.77001953125
0.51953125,0.06298828125,0.000244140625,6.8359375,0.0228881835938,-1.953125
0.5234375,0.0625,0.0078125,0.0,0.0228881835938,0.06103515625
0.5,0.0625,0.07861328125,0.0,0.1220703125,-0.9765625
0.5,0.078125,0.00390625,0.0,0.0,0.48828125
0.501953125,0.083984375,0.015869140625,0.244140625,2.0751953125,0.0
0.50439453125,0.07080078125,0.0,0.00762939453125,2.0751953125,-2.9296875
0.50390625,0.0625,0.009765625,-1.708984375,0.503540039062,-3.58581542969
0.5,0.0703125,0.0,0.0,0.030517578125,-2.9296875
0.5,0.0625,0.0009765625,0.1220703125,0.0,0.0
0.501953125,0.064453125,0.015869140625,0.0,0.0,-3.87573242188
0.515625,0.064453125,0.0,0.0,1.03759765625,0.0
0.53125,0.0625,0.0009765625,0.06103515625,0.18310546875,0.06103515625
0.5078125,0.0625,0.0,0.030517578125,0.244140625,0.030517578125
0.5,0.0,0.0,0.0152587890625,0.129699707031,0.0534057617188
0.5625,0.07080078125,0.0,-11.71875,0.9765625,11.7263793945
0.5,0.09375,0.00048828125,0.0,0.244140625,15.625
0.0,0.125,0.078125,0.0,0.00762939453125,1.96075439453
0.0087890625,0.015625,0.001953125,-46.875,17.7383422852,0.6103515625
0.0078125,0.015625,0.015869140625,0.0,0.0762939453125,0.06103515625
0.0078125,0.00390625,0.00048828125,1.98364257812,12.0849609375,-17.578125
0.000732421875,0.0048828125,0.0009765625,1.953125,8.07189941406,0.06103515625
0.01953125,-0.839599609375,0.03125,-30.76171875,1.708984375,0.06103515625
0.0625,0.0009765625,0.0859375,0.00762939453125,0.244140625,6.8359375
0.25,0.000244140625,0.0,0.1220703125,2.44140625,0.0152587890625
0.3125,0.00830078125,0.00634765625,0.732421875,0.0,0.0
0.000244140625,0.0,0.0078125,7.84301757812,3.96728515625,3.90625
0.000244140625,0.0048828125,0.0029296875,0.9765625,4.94384765625,0.251770019531
0.0625,0.015625,0.033203125,0.137329101562,7.8125,1.953125
0.001953125,0.000244140625,0.0,-13.427734375,4.39453125,3.93676757812
0.0,-0.87060546875,0.0009765625,-23.3612060547,0.0762939453125,0.1220703125
0.00048828125,-0.84375,0.00830078125,-46.875,0.0,15.7852172852
0.0361328125,-0.974609375,0.0,0.0,0.0,0.244140625
0.0,-0.93359375,0.009765625,-30.2734375,0.030517578125,0.0
0.5,0.0,0.0625,-31.005859375,31.25,0.0
0.0048828125,0.0078125,0.0234375,-31.1737060547,13.8702392578,0.0152587890625
0.5,0.01611328125,0.0,0.6103515625,1.98364257812,0.0
0.50390625,0.00048828125,0.12890625,-28.3203125,0.06103515625,0.48828125
0.5234375,0.005859375,0.0791015625,-31.2194824219,0.640869140625,0.0762939453125
0.503173828125,0.0,0.015625,0.0,0.0,0.48828125
0.50244140625,-0.7646484375,0.015625,7.8125,0.152587890625,-29.296875
0.515625,-0.75,0.00146484375,-6.51550292969,0.0,-22.7966308594
0.504150390625,-0.8125,0.046875,-22.4456787109,1.0986328125,1.46484375
0.5,-0.87109375,0.00146484375,1.00708007812,0.0,-22.4609375
0.063232421875,-0.9375,0.031494140625,1.220703125,2.33459472656,-31.25
0.5,-0.75,0.03125,0.137329101562,3.96728515625,0.0
0.5,-0.96875,0.00244140625,0.0,0.030517578125,0.0
0.0,-0.998046875,0.0,13.7329101562,7.82012939453,-15.13671875
0.126953125,-0.718505859375,0.0048828125,1.13677978516,1.953125,0.0
0.500244140625,-0.873046875,0.0078125,0.9765625,0.0457763671875,0.244140625
0.515625,-0.984375,0.000244140625,0.00762939453125,0.0,0.320434570312
0.509765625,-0.874755859375,0.0625,0.030517578125,3.91387939453,-7.80487060547
0.1328125,-0.982421875,0.0625,0.1220703125,8.056640625,0.091552734375
0.134765625,-0.75,0.09375,0.0152587890625,0.3662109375,0.244140625
0.515869140625,-0.99609375,0.0,-31.25,-31.25,2.26593017578
0.0,0.0185546875,0.1416015625,0.267028808594,3.90625,15.6860351562
0.00439453125,-1.0,0.1328125,0.495910644531,0.984191894531,0.030517578125
0.5,-1.0,0.016845703125,-11.7111206055,1.953125,0.0
0.5,-0.75,0.03759765625,-15.625,-7.8125,2.01416015625
0.5166015625,-0.988037109375,0.0078125,-13.6642456055,0.495910644531,1.953125
0.5009765625,-0.984375,0.0,0.274658203125,0.00762939453125,9.35363769531
0.515625,-0.998046875,0.0,-14.6179199219,0.9765625,0.0381469726562
0.50390625,-0.9140625,0.0166015625,-15.4571533203,17.6544189453,0.0
0.5009765625,-0.9970703125,0.0,0.0,0.205993652344,0.0
0.5,-1.0,0.001220703125,-11.5966796875,0.0,1.04522705078
0.5,-1.0,0.0009765625,-14.6179199219,0.00762939453125,0.9765625
0.5,-0.9375,0.015625,0.0,23.4603881836,1.953125
0.500244140625,-0.998046875,0.0,0.0,0.251770019531,0.48828125
0.515625,-0.9912109375,0.000244140625,-7.24792480469,0.0,0.9765625
0.50048828125,-0.9375,0.015625,-11.4669799805,46.875,1.953125
0.5,-0.991943359375,0.000732421875,0.030517578125,70.3125,0.0
0.5009765625,-1.0,0.0009765625,4.42504882812,79.1015625,7.8125
0.5078125,-0.966796875,0.000244140625,0.0,0.1220703125,3.173828125
0.00048828125,-0.96728515625,0.0,0.0,0.3662109375,4.00543212891
0.5078125,-0.998046875,0.0,0.18310546875,70.3201293945,3.90625
0.53173828125,-0.9921875,0.0,4.05883789062,75.3173828125,0.9765625
0.000244140625,-1.0,0.04736328125,0.0,78.1326293945,0.244140625
0.5,-0.9921875,0.0634765625,1.953125,0.0,7.84301757812
0.5,-1.0,0.03125,0.0457763671875,8.22448730469,0.0
0.033203125,-1.0,0.015625,0.06103515625,0.030517578125,3.90625
0.02001953125,-0.999755859375,0.001953125,0.0,66.650390625,0.137329101562
0.00390625,-1.0,0.0703125,0.42724609375,63.0187988281,0.747680664062
0.031982421875,-0.93359375,0.0,1.98364257812,0.244140625,35.15625
0.0,0.004150390625,0.0625,0.0,125.0,7.8125
0.0703125,-1.0,0.134765625,1.11389160156,39.1845703125,0.0
0.251953125,-0.74853515625,0.5,3.91387939453,1.953125,0.0
0.0,0.0,0.031494140625,0.06103515625,0.06103515625,0.06103515625
0.001220703125,-1.0,0.500244140625,-6.82067871094,0.0,-31.25
0.033447265625,-1.0,0.000732421875,0.0,0.503540039062,0.0
0.0,-0.953125,0.0078125,-27.3132324219,0.48828125,4.150390625
0.07080078125,-0.90625,0.0,0.0,1.53350830078,0.0
0.09375,-0.9990234375,0.00390625,0.0,24.4140625,-15.1062011719
0.015625,-0.9296875,0.078125,2.5634765625,0.1220703125,0.1220703125
0.0,-0.9990234375,0.078125,-7.8125,0.9765625,4.0283203125
0.0,-0.9990234375,0.0,0.9765625,0.274658203125,-7.8125
0.0,-0.9990234375,0.06640625,0.0,0.9765625,0.511169433594
0.0029296875,-0.9921875,0.0,0.0152587890625,0.0,0.541687011719
0.0,-0.984375,0.06298828125,-10.7421875,0.0,2.01416015625
0.000244140625,-0.99951171875,0.0703125,0.0,1.96838378906,0.0
0.0,-0.9970703125,0.0625,0.0,0.129699707031,0.732421875
0.03173828125,-1.0,0.0625,0.244140625,0.0,0.0
0.01611328125,-0.9990234375,0.0625,0.152587890625,0.06103515625,0.0
0.000244140625,-0.99609375,0.06640625,1.953125,1.953125,0.00762939453125
0.033203125,-0.994140625,0.0625,3.90625,0.030517578125,0.0
0.03125,-1.0,0.06298828125,0.0,0.0457763671875,-1.953125
0.031494140625,-1.0,0.0625,-3.23486328125,0.48828125,0.06103515625
0.0234375,-0.999755859375,0.06640625,2.5634765625,0.0,-3.90625
0.015625,-1.0,0.0625,0.0,0.0,-3.90625
0.00390625,-1.0,0.06640625,-0.946044921875,1.96075439453,0.0
0.0,-0.93701171875,0.063232421875,0.00762939453125,0.0,0.0
0.03125,-1.0,0.0625,0.00762939453125,2.0751953125,-3.90625
0.01953125,-0.99951171875,0.0703125,0.518798828125,2.13623046875,0.0
0.03125,-1.0,0.0703125,0.244140625,2.3193359375,0.0
0.031494140625,-0.99609375,0.015625,0.518798828125,0.0,-2.92205810547
0.021484375,-0.998046875,0.0625,0.9765625,0.0,0.0
0.03125,-1.0,0.078369140625,0.48828125,1.953125,-2.92205810547
0.031982421875,-0.99609375,0.0703125,0.0,1.953125,-2.42614746094
0.03125,-1.0,0.0625,0.06103515625,2.44140625,-2.9296875
0.01611328125,-1.0,0.0703125,0.1220703125,1.96838378906,-2.9296875
0.03125,-1.0,0.06298828125,0.06103515625,1.96838378906,-2.91442871094
0.0322265625,-0.998046875,0.06640625,0.129699707031,1.953125,0.0762939453125
0.03125,-0.9921875,0.06298828125,0.06103515625,2.197265625,-2.91442871094
0.03125,-1.0,0.064453125,1.03759765625,2.0751953125,-2.9296875
0.01611328125,-1.0,0.0625,1.00708007812,2.44140625,0.0
0.0322265625,-1.0,0.025390625,0.030517578125,2.21252441406,0.732421875
0.00146484375,-0.9990234375,0.0634765625,0.9765625,1.46484375,-2.9296875
0.031494140625,-0.997802734375,0.0703125,0.0,1.99890136719,-2.9296875
0.03125,-0.9990234375,0.0625,0.0,1.953125,0.06103515625
0.00390625,-0.991943359375,0.0625,0.0,0.503540039062,0.1220703125
0.03515625,-0.997802734375,0.0625,0.129699707031,1.96075439453,-2.9296875
0.03125,-0.99609375,0.0634765625,1.953125,2.0751953125,0.00762939453125
0.0322265625,-0.9921875,0.06640625,0.137329101562,1.953125,0.030517578125
0.03125,-0.9990234375,0.072265625,0.0,0.00762939453125,-1.953125
0.03125,-1.0,0.06640625,0.0,1.953125,-2.86865234375
0.03173828125,-0.9912109375,0.062744140625,1.953125,0.0152587890625,0.0
0.03125,-0.998046875,0.0625,0.48828125,0.0,0.030517578125
0.0146484375,-1.0,0.0185546875,0.030517578125,0.18310546875,-1.953125
0.0078125,-1.0,0.0625,1.46484375,1.953125,-3.90625
0.015625,-0.9990234375,0.063720703125,1.953125,2.197265625,0.259399414062
0.03125,-0.999755859375,0.0625,0.48828125,0.0762939453125,0.984191894531
0.0,-1.0,0.017333984375,0.137329101562,0.0152587890625,-1.5869140625
0.0234375,-0.99951171875,0.0634765625,1.953125,0.0,-3.90625
0.032470703125,-1.0,0.0625,1.96838378906,1.953125,0.0228881835938
0.002197265625,-0.99951171875,0.015625,-1.46484375,0.1220703125,0.0
0.033203125,-0.9921875,0.062744140625,0.0152587890625,0.244140625,-1.953125
0.03125,-1.0,0.0625,0.030517578125,1.953125,-2.86102294922
0.0322265625,-1.0,0.06298828125,2.0751953125,1.953125,0.0
0.00244140625,-0.999755859375,0.023681640625,0.0,0.0152587890625,0.0152587890625
0.031494140625,-1.0,0.001953125,0.259399414062,0.0,-1.953125
0.00390625,-0.9921875,0.06640625,0.9765625,0.00762939453125,-2.65502929688
0.008544921875,-0.9921875,0.0625,0.48828125,0.0,0.0
0.001953125,-1.0,0.0625,0.030517578125,1.953125,0.495910644531
0.008056640625,-1.0,0.0673828125,0.0,0.0,-1.953125
0.03125,-0.99951171875,0.0703125,0.48828125,2.01416015625,-2.91442871094
0.015625,-0.999755859375,0.06298828125,0.0,1.953125,0.1220703125
0.03173828125,-0.999755859375,0.0625,0.0,0.0,-2.9296875
0.03125,-0.9912109375,0.0,0.0,0.1220703125,-2.44140625
0.03125,-1.0,0.064453125,0.0,2.47192382812,-2.5634765625
0.03125,-0.999755859375,0.0625,2.04467773438,2.0751953125,-2.9296875
0.0322265625,-0.9990234375,0.0634765625,0.732421875,0.1220703125,-2.0751953125
0.03125,-1.0,0.06640625,1.00708007812,0.0,-2.9296875
0.00146484375,-0.99609375,0.078125,0.1220703125,1.953125,0.0
0.03125,-1.0,0.0244140625,0.0,1.953125,0.244140625
0.03369140625,-1.0,0.0625,0.48828125,0.1220703125,0.00762939453125
0.03125,-0.999755859375,0.078125,0.030517578125,1.953125,0.0
0.03369140625,-0.995361328125,0.0625,0.0686645507812,0.259399414062,0.0381469726562
0.015625,-1.0,0.0,1.220703125,0.0,-2.89916992188
0.03173828125,-0.9970703125,0.0634765625,0.259399414062,1.96075439453,0.06103515625
0.03125,-1.0,0.066650390625,0.0,0.244140625,0.1220703125
0.0322265625,-0.998046875,0.0625,0.030517578125,0.030517578125,-2.92205810547
0.013671875,-1.0,0.06298828125,1.220703125,0.0,0.0
0.03125,-0.9990234375,0.062744140625,0.030517578125,0.48828125,0.0
0.03173828125,-1.0,0.064453125,0.1220703125,1.953125,-2.685546875
0.001953125,-1.0,0.0625,0.0,2.197265625,-2.197265625
0.03125,-1.0,0.0625,0.3662109375,0.0,0.1220703125
0.0,-1.0,0.06640625,0.495910644531,0.503540039062,0.06103515625
0.015625,-0.998046875,0.0703125,0.0,0.091552734375,-2.9296875
0.019775390625,-0.9951171875,0.066650390625,1.0986328125,2.44140625,-2.9296875
0.03125,-1.0,0.06298828125,0.06103515625,1.953125,0.00762939453125
0.004150390625,-1.0,0.0625,0.518798828125,0.0,-2.67791748047
0.03125,-1.0,0.0625,0.0762939453125,0.091552734375,-2.44140625
0.03515625,-0.9990234375,0.0654296875,0.564575195312,2.01416015625,-2.685546875
0.03125,-0.9970703125,0.0625,0.0,0.0,0.0
0.03125,-1.0,0.06298828125,0.244140625,0.0,-1.953125
0.03759765625,-1.0,0.0625,0.0,0.0152587890625,-1.953125
0.03125,-0.99169921875,0.062744140625,0.06103515625,1.953125,0.0
0.009765625,-1.0,0.064453125,0.0,0.259399414062,0.0
0.0,-0.9921875,0.078125,0.0,0.9765625,-1.953125
0.00830078125,-0.994140625,0.0634765625,0.1220703125,0.0381469726562,0.06103515625
0.0,-0.9970703125,0.062744140625,0.640869140625,0.48828125,0.244140625
0.03125,-0.998046875,0.0625,0.30517578125,0.0,-3.89099121094
0.0322265625,-0.9990234375,0.071533203125,1.96075439453,1.953125,-3.90625
0.03369140625,-0.99609375,0.06298828125,0.0,1.953125,0.0
0.015625,-0.995849609375,0.062744140625,0.259399414062,0.0,0.244140625
0.03125,-1.0,0.0625,0.06103515625,0.00762939453125,-3.7841796875
0.03125,-1.0,0.0625,2.10571289062,1.953125,-2.9296875
0.03125,-0.9990234375,0.066650390625,0.6103515625,2.197265625,1.0986328125
0.03125,-1.0,0.0625,0.0,0.0,0.0
0.004150390625,-1.0,0.070556640625,0.00762939453125,0.6103515625,-1.73950195312
0.0078125,-0.9951171875,0.06298828125,0.259399414062,1.953125,-2.9296875
0.0,-1.0,0.06298828125,0.0,1.953125,0.48828125
0.03125,-0.998046875,0.0625,0.48828125,0.06103515625,-3.89862060547
0.03125,-0.998046875,0.064453125,1.00708007812,2.09045410156,-3.86047363281
0.03369140625,-0.99609375,0.06640625,1.953125,2.47192382812,0.1220703125
0.019775390625,-1.0,0.01806640625,0.495910644531,1.953125,0.289916992188
0.0,-1.0,0.015625,-0.9765625,0.0,-1.93786621094
0.015625,-0.998779296875,0.062744140625,0.030517578125,0.0,-3.7841796875
0.03125,-1.0,0.0625,1.953125,0.0152587890625,-2.9296875
0.03125,-1.0,0.0625,0.495910644531,1.953125,0.0
0.03125,-0.9921875,0.0625,0.091552734375,0.48828125,0.0
0.03125,-1.0,0.0703125,0.0,0.244140625,-1.94549560547
0.009765625,-0.9951171875,0.0625,2.44140625,0.0,0.0
0.015625,-1.0,0.0,0.06103515625,0.267028808594,0.48828125
0.000732421875,-0.99853515625,0.0625,0.0,0.3662109375,-1.91497802734
0.03173828125,-0.99609375,0.064453125,0.18310546875,0.00762939453125,-3.90625
0.03173828125,-0.998046875,0.0625,1.98364257812,1.98364257812,0.48828125
0.0322265625,-0.99951171875,0.06298828125,0.091552734375,0.1220703125,0.48828125
0.0166015625,-1.0,0.0625,-1.40380859375,0.1220703125,-1.8310546875
0.037109375,-1.0,0.06640625,0.0,2.0751953125,-2.9296875
0.03125,-1.0,0.0703125,1.953125,1.953125,0.0152587890625
0.033447265625,-1.0,0.025390625,0.00762939453125,0.0152587890625,0.0
0.03125,-0.99951171875,0.0625,0.129699707031,0.06103515625,-1.93786621094
0.03515625,-0.99951171875,0.06640625,0.0,2.09045410156,0.0
0.03125,-1.0,0.06298828125,1.953125,2.48718261719,0.0
0.0,-1.0,0.0703125,0.00762939453125,0.503540039062,-2.38037109375
0.015625,-1.0,0.0703125,0.0,0.030517578125,-2.9296875
0.03173828125,-0.997802734375,0.06298828125,0.9765625,2.10571289062,-2.9296875
0.03125,-1.0,0.0625,0.732421875,2.10571289062,0.0
0.031494140625,-1.0,0.0634765625,0.030517578125,0.48828125,0.0152587890625
0.03125,-0.99755859375,0.06298828125,0.0,0.259399414062,-2.89916992188
0.03125,-1.0,0.0625,0.0381469726562,2.197265625,-2.44140625
0.03125,-0.999267578125,0.0625,0.48828125,1.953125,0.0
0.015625,-0.99560546875,0.06640625,0.06103515625,0.0,-2.685546875
0.01611328125,-1.0,0.071533203125,0.0,0.0,-1.89208984375
0.03515625,-0.999755859375,0.0625,0.06103515625,1.953125,-2.44140625
0.015625,-0.999755859375,0.0703125,0.244140625,1.98364257812,0.67138671875
0.03125,-1.0,0.06640625,0.0,0.00762939453125,-2.685546875
0.03125,-0.99609375,0.0625,0.518798828125,0.244140625,-2.9296875
0.03271484375,-0.9990234375,0.0625,0.503540039062,2.08282470703,-2.9296875
0.03125,-0.9951171875,0.06298828125,0.740051269531,2.13623046875,0.0
0.03125,-1.0,0.0625,0.0,0.0,-2.86865234375
0.03125,-0.99951171875,0.0625,0.503540039062,0.030517578125,-2.36511230469
0.0166015625,-0.999755859375,0.0625,0.244140625,1.953125,0.0
0.03515625,-0.998046875,0.0625,0.48828125,2.20489501953,-2.44140625
0.031494140625,-0.994140625,0.0625,0.0,0.00762939453125,-2.44140625
0.016357421875,-0.99560546875,0.0634765625,0.0,0.0,-2.72369384766
0.0234375,-1.0,0.0703125,0.48828125,1.953125,-2.41088867188
0.03173828125,-1.0,0.0625,0.54931640625,1.953125,0.0457763671875
0.0322265625,-1.0,0.06298828125,0.0,0.259399414062,0.0
0.031494140625,-1.0,0.0625,0.0,0.0152587890625,-2.44140625
0.03125,-1.0,0.064453125,0.244140625,2.01416015625,-2.41088867188
0.01953125,-1.0,0.0625,0.9765625,1.953125,0.0
0.01953125,-1.0,0.066650390625,0.991821289062,0.0,-2.44140625
0.0322265625,-1.0,0.06640625,0.06103515625,2.22778320312,-2.89916992188
0.015625,-0.998046875,0.078125,0.48828125,1.98364257812,0.06103515625
0.03125,-0.9990234375,0.0625,0.0457763671875,1.97601318359,0.1220703125
0.01953125,-0.99951171875,0.0703125,0.0,0.244140625,-2.685546875
0.031494140625,-0.998779296875,0.0625,0.0,1.953125,-2.685546875
0.0322265625,-1.0,0.063232421875,0.503540039062,1.953125,-2.685546875
0.03125,-1.0,0.06298828125,0.48828125,0.579833984375,-2.44140625
0.0205078125,-1.0,0.068359375,0.48828125,0.244140625,-2.41088867188
0.03125,-0.998046875,0.0625,0.251770019531,0.556945800781,0.0
0.0322265625,-1.0,0.0625,0.244140625,2.197265625,-2.41088867188
0.031494140625,-1.0,0.064453125,0.030517578125,1.953125,0.0
0.0322265625,-0.998046875,0.063232421875,0.0,1.953125,-2.44140625
0.0322265625,-0.99755859375,0.063720703125,0.48828125,0.00762939453125,-2.43377685547
0.03125,-1.0,0.064697265625,0.1220703125,2.04467773438,0.0152587890625
0.03125,-1.0,0.0625,0.205993652344,0.0,-2.44140625
0.03125,-0.99951171875,0.0625,0.00762939453125,2.14385986328,0.0
0.03173828125,-1.0,0.06640625,0.54931640625,1.98364257812,0.0
0.01806640625,-0.9990234375,0.070556640625,0.167846679688,0.0,-1.89208984375
0.03125,-1.0,0.0703125,0.0686645507812,1.953125,-2.43377685547
0.031982421875,-0.9990234375,0.06640625,0.503540039062,0.1220703125,0.0
0.03125,-1.0,0.078125,0.0,0.0,0.0
0.015625,-1.0,0.064697265625,0.06103515625,0.0,-2.62451171875
0.033203125,-1.0,0.0703125,0.274658203125,0.534057617188,-2.44140625
0.03125,-1.0,0.07421875,0.503540039062,1.953125,0.0
0.03125,-1.0,0.072265625,0.0,0.0,0.0
0.03173828125,-1.0,0.0673828125,0.06103515625,0.3662109375,-2.89154052734
0.03515625,-1.0,0.0703125,0.0,1.953125,-2.8076171875
0.017578125,-0.9873046875,0.001953125,0.0152587890625,2.197265625,0.18310546875
0.03125,-0.99560546875,0.064697265625,0.503540039062,0.0,-2.8076171875
0.03125,-0.99609375,0.0634765625,0.6103515625,0.00762939453125,-2.9296875
0.01953125,-1.0,0.0625,0.137329101562,2.0751953125,0.0
0.03125,-0.9990234375,0.0625,1.11389160156,0.617980957031,0.0
0.03125,-0.99951171875,0.0625,0.617980957031,0.0,-2.90679931641
0.03125,-1.0,0.0703125,0.244140625,1.953125,-2.685546875
0.03125,-0.99853515625,0.0625,0.6103515625,1.96838378906,-2.67028808594
0.035400390625,-1.0,0.0625,0.79345703125,0.244140625,-2.44140625
0.03173828125,-1.0,0.06640625,0.6103515625,0.0152587890625,-1.953125
0.03173828125,-0.999755859375,0.0625,0.999450683594,1.96838378906,-2.86102294922
0.03125,-0.999755859375,0.064453125,1.953125,2.02941894531,0.0534057617188
0.0390625,-0.999755859375,0.07470703125,0.1220703125,1.953125,0.244140625
0.03125,-0.98828125,0.0625,0.244140625,0.0686645507812,0.0
0.03125,-1.0,0.0625,1.00708007812,0.3662109375,-2.8076171875
0.015625,-1.0,0.0625,2.44140625,0.0152587890625,0.0
0.031982421875,-1.0,0.0625,0.244140625,0.030517578125,0.518798828125
0.015869140625,-1.0,0.06396484375,0.1220703125,0.0,0.221252441406
0.033447265625,-0.9990234375,0.0625,0.0,1.98364257812,-2.197265625
0.015625,-0.995849609375,0.07080078125,1.953125,2.44140625,0.274658203125
0.015625,-1.0,0.0703125,0.030517578125,0.9765625,0.0
0.03173828125,-0.99609375,0.0625,-1.43432617188,0.0,-1.94549560547
0.03125,-1.0,0.0625,0.1220703125,1.953125,-2.92205810547
0.0,-1.0,0.0,0.0,0.48828125,-3.7841796875
0.03125,-0.9921875,0.0205078125,0.244140625,0.617980957031,0.0
0.032470703125,-1.0,0.0625,0.0381469726562,1.10626220703,-1.953125
0.03515625,-1.0,0.070556640625,0.00762939453125,2.01416015625,0.0
0.03125,-0.995849609375,0.0625,2.0751953125,2.9296875,1.06811523438
0.015625,-0.9990234375,0.0625,0.67138671875,0.0,0.0
0.0166015625,-1.0,0.0625,0.0457763671875,0.06103515625,-1.708984375
0.03125,-0.9990234375,0.078125,0.0,0.0,-2.86865234375
0.033203125,-0.999755859375,0.0703125,1.96838378906,1.953125,0.9765625
0.033203125,-0.999755859375,0.0625,0.0,0.0,-1.953125
0.001953125,-1.0,0.064453125,0.244140625,0.030517578125,-2.86865234375
0.0166015625,-0.998046875,0.080078125,1.96075439453,0.0,0.0
0.03515625,-0.99951171875,0.0625,0.030517578125,0.1220703125,0.0
0.03125,-0.9951171875,0.0625,0.00762939453125,0.030517578125,-1.708984375
0.03515625,-0.9951171875,0.064453125,0.1220703125,2.09045410156,0.167846679688
0.03173828125,-1.0,0.0634765625,2.47192382812,1.953125,-2.86865234375
0.0,-1.0,0.03125,0.0,0.00762939453125,0.00762939453125
0.0,-1.0,0.0625,0.0,0.0152587890625,-0.79345703125
0.0,-1.0,0.0634765625,0.9765625,0.0152587890625,-1.92260742188
0.01953125,-1.0,0.078125,1.953125,0.0,-3.90625
0.015625,-1.0,0.0,1.98364257812,0.0,0.160217285156
0.0029296875,-1.0,0.0,0.244140625,0.0,0.0534057617188
0.015625,-1.0,0.070556640625,-0.701904296875,0.06103515625,-3.90625
0.03125,-1.0,0.06298828125,0.0,1.953125,-2.65502929688
0.00048828125,-1.0,0.0625,0.0,1.96075439453,0.00762939453125
0.031494140625,-0.99609375,0.0625,0.1220703125,0.0,0.0
0.03125,-0.999755859375,0.0625,0.0,1.96838378906,0.0152587890625
0.0234375,-0.999755859375,0.070556640625,1.953125,1.953125,-2.83813476562
0.00048828125,-1.0,0.062744140625,0.0,0.0,0.0
0.0,-1.0,0.0625,0.00762939453125,0.06103515625,0.00762939453125
0.0185546875,-0.994140625,0.0703125,0.06103515625,0.48828125,-2.92205810547
0.015625,-0.9990234375,0.0625,2.05230712891,2.197265625,-2.92205810547
0.015625,-1.0,0.0,0.740051269531,1.953125,0.00762939453125
0.015625,-1.0,0.0625,0.06103515625,0.251770019531,-3.90625
0.03125,-1.0,0.0625,0.030517578125,0.244140625,-2.85339355469
0.0,-0.9990234375,0.0625,0.0,1.953125,0.244140625
0.0322265625,-1.0,0.0625,0.0,1.953125,0.18310546875
0.0234375,-0.995849609375,0.01611328125,0.0,0.732421875,0.00762939453125
0.03125,-1.0,0.064453125,0.0,0.556945800781,0.0
0.000244140625,-1.0,0.06640625,0.0,0.0,0.1220703125
0.01953125,-1.0,0.078125,0.0,1.96075439453,-1.92260742188
0.03271484375,-1.0,0.0634765625,0.9765625,0.0,0.0
0.015625,-1.0,0.0625,0.251770019531,0.503540039062,0.0
0.01611328125,-1.0,0.0791015625,0.244140625,1.96838378906,-2.9296875
0.017578125,-0.999755859375,0.0634765625,0.0,0.244140625,0.06103515625
0.03125,-1.0,0.0625,0.00762939453125,0.00762939453125,0.0228881835938
0.033203125,-0.99951171875,0.0625,1.02233886719,0.0,-2.9296875
0.0390625,-0.99755859375,0.06640625,0.030517578125,0.503540039062,0.0
0.03173828125,-1.0,0.06494140625,0.00762939453125,0.0,0.0
0.032470703125,-0.998046875,0.0625,0.0686645507812,0.030517578125,-2.13623046875
0.03173828125,-0.99609375,0.0634765625,0.67138671875,1.953125,-2.44140625
0.033203125,-1.0,0.0625,1.00708007812,0.396728515625,-2.685546875
0.01953125,-0.999755859375,0.0625,1.03759765625,0.244140625,-2.55584716797
0.01611328125,-0.999755859375,0.0625,0.48828125,0.0,-2.9296875
0.01611328125,-0.99853515625,0.07421875,0.0,1.96838378906,0.030517578125
0.03125,-1.0,0.0625,0.06103515625,1.953125,0.0
0.017578125,-0.99609375,0.0625,0.9765625,0.030517578125,-2.9296875
0.033203125,-1.0,0.064697265625,0.9765625,0.1220703125,-2.685546875
0.0,-1.0,0.064453125,0.9765625,2.197265625,-2.8076171875
0.015869140625,-0.995849609375,0.06640625,0.0152587890625,0.0152587890625,0.0
0.0205078125,-0.994140625,0.0625,0.9765625,0.030517578125,0.48828125
0.009765625,-0.9921875,0.0625,1.06048583984,0.0,-1.953125
0.015625,-0.999267578125,0.070556640625,0.6103515625,0.1220703125,0.0
0.015625,-1.0,0.0703125,0.9765625,0.495910644531,0.0
0.016845703125,-1.0,0.068359375,0.579833984375,0.1220703125,-2.9296875
0.03125,-0.99609375,0.062744140625,0.732421875,0.152587890625,0.0
0.03125,-0.99609375,0.0625,0.9765625,2.11334228516,-2.67791748047
0.015625,-1.0,0.06298828125,0.0,1.96838378906,-2.9296875
0.017578125,-1.0,0.06298828125,0.9765625,1.953125,0.0
0.033203125,-0.9951171875,0.0625,0.137329101562,0.244140625,-3.7841796875
0.03125,-0.99951171875,0.0087890625,0.1220703125,0.0,0.0
0.031982421875,-0.998046875,0.064453125,0.48828125,0.00762939453125,0.0
0.031494140625,-0.990234375,0.0625,0.3662109375,0.1220703125,-2.38037109375
0.029296875,-0.99609375,0.0703125,0.137329101562,0.0,0.0152587890625
0.01953125,-1.0,0.0625,0.0,1.953125,0.0762939453125
0.0166015625,-0.9951171875,0.0703125,0.00762939453125,1.0986328125,-2.9296875
0.01611328125,-0.99609375,0.062744140625,0.0,1.953125,-2.3193359375
0.0234375,-0.99853515625,0.0625,0.0152587890625,1.96838378906,-2.44140625
0.015869140625,-1.0,0.0703125,0.0152587890625,0.48828125,0.0
0.03125,-0.994140625,0.0703125,0.0,0.48828125,-2.66265869141
0.03125,-1.0,0.0625,0.48828125,2.01416015625,0.00762939453125
0.03125,-1.0,0.064453125,0.0,0.0,0.129699707031
0.03125,-0.994140625,0.0625,0.0,0.0,-2.67028808594
0.03125,-0.99951171875,0.0625,0.0228881835938,1.953125,-2.197265625
0.03125,-1.0,0.07421875,0.48828125,1.953125,0.0
0.03173828125,-1.0,0.06494140625,0.0,1.953125,0.0
0.01953125,-0.999755859375,0.062744140625,0.00762939453125,0.0,-1.81579589844
0.015869140625,-0.99609375,0.0625,0.030517578125,0.0,-2.44140625
0.023681640625,-1.0,0.078125,0.747680664062,1.953125,-2.9296875
0.01953125,-1.0,0.06298828125,0.503540039062,2.02178955078,0.00762939453125
0.03125,-1.0,0.06640625,0.495910644531,0.48828125,0.06103515625
0.03125,-1.0,0.0634765625,0.0,0.48828125,-2.9296875
0.033203125,-1.0,0.07080078125,0.0,2.44140625,-2.91442871094
0.031494140625,-1.0,0.0634765625,0.00762939453125,2.13623046875,0.00762939453125
0.033203125,-0.99853515625,0.064453125,0.8544921875,0.0,-2.38037109375
0.0,-0.99755859375,0.06640625,0.885009765625,0.6103515625,-2.40325927734
0.03271484375,-0.999755859375,0.0625,0.9765625,1.96838378906,-2.38037109375
0.0234375,-0.998046875,0.0703125,0.9765625,2.02941894531,0.0
0.03125,-1.0,0.0625,0.0,0.0152587890625,0.0
0.03125,-0.999755859375,0.068359375,0.48828125,0.495910644531,-2.44140625
0.031494140625,-0.99951171875,0.078125,0.030517578125,2.197265625,-2.44140625
0.01953125,-0.9990234375,0.0625,0.9765625,1.953125,-2.9296875
0.01953125,-1.0,0.0625,0.0,0.0152587890625,-2.44140625
0.032470703125,-0.999755859375,0.0625,0.0686645507812,0.1220703125,-2.9296875
0.0,-0.9990234375,0.06298828125,0.1220703125,1.953125,-2.9296875
0.0322265625,-1.0,0.06640625,0.06103515625,2.01416015625,-2.86865234375
0.03515625,-0.9951171875,0.0625,0.1220703125,0.6103515625,-2.41088867188
0.01953125,-1.0,0.0625,0.381469726562,0.00762939453125,-2.38037109375
0.015625,-1.0,0.0625,0.0152587890625,2.10571289062,-2.44140625
0.03125,-0.99951171875,0.0625,0.00762939453125,2.04467773438,-2.38037109375
0.023681640625,-1.0,0.0673828125,0.259399414062,0.0,-2.44140625
0.0322265625,-0.99609375,0.0625,0.244140625,1.953125,0.0
0.0205078125,-1.0,0.0625,0.48828125,2.0751953125,-2.9296875
0.017578125,-0.9931640625,0.07421875,0.030517578125,2.0751953125,-2.83813476562
0.031494140625,-1.0,0.0703125,0.00762939453125,0.48828125,-2.92205810547
0.0,-1.0,0.0654296875,0.06103515625,1.953125,-2.38037109375
0.02001953125,-1.0,0.062744140625,0.732421875,1.953125,-2.9296875
0.03173828125,-1.0,0.064453125,0.244140625,0.48828125,-2.37274169922
0.03125,-0.99462890625,0.0654296875,0.0,0.503540039062,-2.41088867188
0.0,-1.0,0.0703125,0.152587890625,0.0686645507812,-2.39562988281
0.033935546875,-1.0,0.0634765625,0.511169433594,1.953125,-2.44140625
0.03125,-0.999755859375,0.0703125,0.0,2.01416015625,-2.44140625
0.03125,-0.999755859375,0.0625,0.0,0.0,-2.44140625
0.03173828125,-1.0,0.0634765625,0.1220703125,2.197265625,-2.9296875
0.0,-1.0,0.063720703125,0.48828125,0.0228881835938,0.0
0.03125,-0.99853515625,0.06298828125,0.1220703125,1.953125,-2.86865234375
0.015625,-0.9990234375,0.0673828125,0.0152587890625,0.0,-2.8076171875
0.03125,-1.0,0.0625,1.04522705078,0.30517578125,-2.44140625
0.0322265625,-1.0,0.06640625,0.48828125,1.96075439453,-2.44140625
0.0205078125,-0.99609375,0.0625,0.48828125,0.48828125,0.0
0.03125,-1.0,0.062744140625,0.9765625,0.48828125,-2.44140625
0.0,-1.0,0.0673828125,0.0,0.144958496094,-2.44140625
0.0,-1.0,0.072265625,0.503540039062,0.0,-2.9296875
0.000244140625,-1.0,0.078125,0.48828125,0.244140625,-2.44140625
0.001953125,-0.99951171875,0.06298828125,0.06103515625,1.953125,0.0
0.0,-0.997802734375,0.01708984375,0.991821289062,0.06103515625,-3.5400390625
0.015869140625,-0.99609375,0.078125,0.0,0.3662109375,-2.42614746094
0.033203125,-0.99951171875,0.0703125,0.503540039062,0.1220703125,-2.685546875
0.033203125,-1.0,0.0625,0.54931640625,0.274658203125,0.0
0.03125,-0.99951171875,0.017578125,0.0152587890625,2.01416015625,-2.18963623047
0.0,-1.0,0.0634765625,0.495910644531,2.22778320312,-2.41088867188
0.0,-0.9951171875,0.0732421875,1.953125,1.953125,0.0
0.017578125,-0.999267578125,0.0625,0.48828125,0.3662109375,-2.44140625
0.0,-0.998779296875,0.0634765625,0.6103515625,0.0,-1.81579589844
0.03125,-1.0,0.064453125,2.02941894531,0.06103515625,-2.44140625
0.0244140625,-0.99609375,0.06298828125,0.0,1.96838378906,0.0
0.015625,-1.0,0.0205078125,0.732421875,0.48828125,0.0
0.023681640625,-1.0,0.0625,0.0,0.0152587890625,-2.197265625
0.02392578125,-1.0,0.063232421875,0.503540039062,1.953125,-2.8076171875
0.032470703125,-0.998046875,0.0634765625,0.48828125,1.953125,-2.85339355469
0.0009765625,-0.99755859375,0.0625,0.0,0.48828125,0.0228881835938
0.03125,-1.0,0.06298828125,0.67138671875,0.0,-2.44140625
0.000244140625,-1.0,0.062744140625,0.0,2.22778320312,-2.44140625
0.0234375,-1.0,0.06640625,0.54931640625,1.953125,0.0
0.03125,-0.99609375,0.0625,0.0,0.00762939453125,-2.9296875
0.021484375,-0.998779296875,0.0625,0.9765625,0.320434570312,-2.44140625
0.03369140625,-1.0,0.0634765625,0.289916992188,1.953125,-2.9296875
0.00146484375,-0.999267578125,0.0625,0.48828125,1.96838378906,0.0
0.02001953125,-1.0,0.0625,0.640869140625,0.0,0.0
0.0205078125,-0.99951171875,0.0625,0.0228881835938,1.953125,-2.43377685547
0.03369140625,-1.0,0.0625,0.48828125,1.953125,-2.9296875
0.03125,-0.9990234375,0.06640625,0.526428222656,0.244140625,0.0457763671875
0.0,-0.99609375,0.0625,0.030517578125,0.0,-1.94549560547
0.03125,-0.99609375,0.0625,0.9765625,0.1220703125,-2.41088867188
0.0,-1.0,0.0625,0.0,1.953125,0.0
0.031494140625,-1.0,0.0625,0.244140625,0.0,-2.86865234375
0.0322265625,-0.99609375,0.064453125,0.0152587890625,0.503540039062,-2.3193359375
0.0,-0.9990234375,0.0625,1.01470947266,1.98364257812,-2.86865234375
0.001220703125,-1.0,0.0625,0.48828125,1.953125,0.0
0.03125,-1.0,0.0625,0.0,0.54931640625,0.0
0.03173828125,-1.0,0.0703125,0.0,0.54931640625,-2.9296875
0.03125,-1.0,0.062744140625,0.48828125,2.22778320312,-2.9296875
0.0,-0.999755859375,0.0625,1.04522705078,0.244140625,-2.79998779297
0.01953125,-0.997802734375,0.0625,0.732421875,1.953125,0.0
0.0,-1.0,0.06298828125,0.152587890625,2.01416015625,-2.8076171875
0.0185546875,-1.0,0.0634765625,0.244140625,1.953125,0.0
0.03125,-1.0,0.0703125,0.0152587890625,0.0,-2.43377685547
0.01611328125,-0.999755859375,0.0625,0.3662109375,0.0,-2.9296875
0.0,-0.9951171875,0.06298828125,0.091552734375,0.0,0.1220703125
0.0,-1.0,0.0625,1.00708007812,0.251770019531,0.0152587890625
0.0,-1.0,0.0625,0.030517578125,1.98364257812,-2.62451171875
0.0,-1.0,0.0625,0.00762939453125,1.98364257812,-2.9296875
0.031494140625,-0.99609375,0.06640625,0.274658203125,1.953125,-2.74658203125
0.0,-0.99560546875,0.0625,0.0,0.0,-2.89916992188
0.0,-0.9990234375,0.064453125,0.244140625,1.953125,-2.685546875
0.0,-1.0,0.06298828125,0.0,1.953125,0.0
0.0029296875,-1.0,0.0625,0.0152587890625,0.00762939453125,0.0
0.01953125,-1.0,0.0625,0.0,0.1220703125,-2.5634765625
0.00146484375,-1.0,0.0625,0.274658203125,0.0,-2.44140625
0.0,-0.999267578125,0.0654296875,0.984191894531,1.96838378906,-2.38037109375
0.0,-0.9990234375,0.072265625,0.0,1.98364257812,0.0152587890625
0.00048828125,-1.0,0.0634765625,0.137329101562,0.0,0.030517578125
0.03125,-0.99951171875,0.0625,0.129699707031,1.953125,-2.44140625
0.021484375,-1.0,0.0625,0.9765625,2.02178955078,0.0
0.03125,-0.99951171875,0.0703125,0.0,0.030517578125,-2.44140625
0.0,-0.99951171875,0.0625,0.9765625,0.48828125,-2.89916992188
0.0,-1.0,0.06494140625,0.00762939453125,0.0762939453125,-2.44140625
0.001953125,-0.99609375,0.064453125,0.244140625,1.953125,-2.44140625
0.0,-0.999755859375,0.0625,0.48828125,1.98364257812,0.0
0.0,-1.0,0.06396484375,0.129699707031,0.259399414062,-2.9296875
0.0,-0.9990234375,0.0625,1.03759765625,1.953125,-2.86102294922
0.000244140625,-1.0,0.0625,0.0,1.953125,-2.70080566406
0.0,-0.998779296875,0.06298828125,0.54931640625,1.96075439453,-2.42614746094
0.00048828125,-1.0,0.0625,0.00762939453125,0.48828125,-2.38037109375
0.01953125,-0.999267578125,0.0625,0.3662109375,1.99890136719,-2.44140625
0.00048828125,-1.0,0.065185546875,0.00762939453125,1.953125,0.0
0.0,-1.0,0.0625,0.0,2.01416015625,-2.41851806641
0.00048828125,-1.0,0.0625,0.48828125,1.96075439453,-2.44140625
0.0,-1.0,0.0625,0.030517578125,2.01416015625,0.129699707031
0.001953125,-1.0,0.0654296875,0.244140625,0.167846679688,0.0
0.0,-0.99609375,0.062744140625,0.244140625,0.00762939453125,-2.38037109375
0.03125,-0.99951171875,0.0625,1.03759765625,2.0751953125,0.0
0.0322265625,-1.0,0.0625,0.0,0.30517578125,-2.8076171875
0.0234375,-0.9990234375,0.0625,0.0,1.953125,-2.44140625
0.0,-1.0,0.0703125,0.1220703125,1.953125,-2.9296875
0.0322265625,-1.0,0.064453125,0.0,1.953125,0.0
0.0,-1.0,0.0791015625,0.0,0.0686645507812,-2.9296875
0.0,-1.0,0.0634765625,1.00708007812,0.259399414062,0.0228881835938
0.03125,-0.99609375,0.0625,0.00762939453125,1.953125,0.0
0.0009765625,-1.0,0.06640625,0.0,0.373840332031,0.129699707031
0.03173828125,-0.998046875,0.0703125,0.06103515625,2.01416015625,-2.44140625
0.01953125,-1.0,0.0625,0.48828125,1.953125,-2.88391113281
0.00048828125,-0.999755859375,0.0625,0.48828125,0.259399414062,0.0152587890625
0.00146484375,-1.0,0.06640625,0.0,0.0,-2.41851806641
0.001953125,-1.0,0.06640625,0.282287597656,1.96075439453,0.030517578125
0.0234375,-1.0,0.0625,0.30517578125,1.96838378906,-2.89916992188
0.0,-1.0,0.0625,0.0,0.244140625,0.030517578125
0.001953125,-1.0,0.0703125,0.06103515625,0.0,-2.685546875
0.000244140625,-1.0,0.0625,0.244140625,0.0,-2.30407714844
0.0,-1.0,0.064453125,0.9765625,1.953125,-2.38037109375
0.0,-0.9990234375,0.0625,0.244140625,1.953125,0.0
0.0234375,-1.0,0.0625,0.244140625,0.48828125,-2.44140625
0.0,-0.99609375,0.063720703125,0.3662109375,0.42724609375,0.00762939453125
0.000244140625,-1.0,0.06298828125,1.02233886719,0.0152587890625,0.0
0.001953125,-1.0,0.0625,0.0,1.953125,-2.44140625
0.0,-0.99755859375,0.062744140625,0.48828125,1.953125,-2.44140625
0.031494140625,-1.0,0.06640625,0.274658203125,1.96075439453,-2.44140625
0.0224609375,-0.999755859375,0.0625,0.244140625,2.01416015625,-2.9296875
0.0,-1.0,0.0634765625,0.1220703125,2.10571289062,-2.91442871094
0.00048828125,-1.0,0.068359375,0.1220703125,1.96838378906,-2.92205810547
0.0009765625,-0.99609375,0.06640625,0.0,0.0,0.0
0.0,-0.9990234375,0.06640625,0.48828125,0.732421875,-2.64739990234
0.00048828125,-0.9990234375,0.0625,0.0,1.953125,0.0
0.00390625,-0.99609375,0.06640625,0.0,2.12860107422,0.0
0.001220703125,-0.9990234375,0.064453125,0.00762939453125,1.953125,-2.77709960938
0.0,-0.994873046875,0.06640625,0.251770019531,0.0,0.00762939453125
0.0009765625,-1.0,0.0625,0.06103515625,0.0,0.0
0.0,-1.0,0.062744140625,0.0,1.953125,-2.35748291016
0.0,-1.0,0.078125,0.48828125,0.244140625,0.0152587890625
0.000244140625,-1.0,0.0625,0.06103515625,1.953125,-2.38037109375
0.0,-1.0,0.0625,0.244140625,2.25830078125,-2.74658203125
0.00439453125,-0.99609375,0.0625,0.0,0.244140625,-2.53295898438
0.0,-1.0,0.064453125,0.1220703125,0.030517578125,-2.44140625
0.00390625,-0.99951171875,0.0654296875,0.244140625,1.953125,-2.44140625
0.0,-0.99755859375,0.0625,0.503540039062,2.197265625,-2.44140625
0.00048828125,-0.9990234375,0.06298828125,0.503540039062,1.953125,0.0
0.0009765625,-1.0,0.06298828125,0.0,0.0,-2.83813476562
0.0,-0.99609375,0.06298828125,0.0,2.21252441406,0.0
0.0,-0.99609375,0.06640625,0.274658203125,1.953125,0.274658203125
0.0,-0.99951171875,0.0625,0.0,1.953125,0.0
0.0,-1.0,0.0625,0.9765625,1.953125,-2.44140625
0.0,-1.0,0.0625,0.984191894531,1.953125,0.030517578125
0.00390625,-1.0,0.0654296875,0.18310546875,1.98364257812,-2.9296875
0.0,-1.0,0.0625,0.0,0.495910644531,-2.41088867188
0.0,-0.99609375,0.0625,0.48828125,1.97601318359,-2.92205810547
0.000244140625,-0.99609375,0.062744140625,0.0,2.08282470703,0.1220703125
0.0,-0.999755859375,0.0625,0.244140625,0.0,-2.44140625
0.00634765625,-1.0,0.0625,0.9765625,0.503540039062,0.00762939453125
0.005859375,-0.9990234375,0.0625,0.48828125,1.953125,-2.89916992188
0.00048828125,-1.0,0.0,0.48828125,1.953125,0.0
0.0,-0.998046875,0.0625,0.1220703125,0.30517578125,-2.685546875
0.0009765625,-0.999755859375,0.0625,0.0,0.48828125,-2.44140625
0.0,-0.99609375,0.0625,0.1220703125,0.244140625,-2.685546875
0.0,-0.9990234375,0.06640625,0.06103515625,0.3662109375,-2.86865234375
0.0009765625,-0.999755859375,0.06298828125,0.244140625,1.953125,-2.44140625
0.0,-0.99951171875,0.06689453125,0.0,1.953125,-2.53295898438
0.0,-1.0,0.0634765625,0.991821289062,1.953125,0.00762939453125
0.0009765625,-0.998046875,0.062744140625,0.00762939453125,1.96838378906,0.0152587890625
0.001220703125,-1.0,0.0625,0.312805175781,0.0,-2.44140625
0.0,-0.999755859375,0.06640625,0.1220703125,0.0,0.00762939453125
0.0,-1.0,0.0625,0.526428222656,1.99127197266,-2.73132324219
0.000244140625,-1.0,0.0625,0.259399414062,2.05230712891,-2.44140625
0.0,-0.999755859375,0.0625,0.9765625,1.953125,0.0
0.0224609375,-1.0,0.0654296875,0.0,1.953125,-2.40325927734
0.001220703125,-0.999755859375,0.064697265625,0.0,1.953125,0.0
0.00244140625,-0.99755859375,0.06689453125,0.0,0.48828125,-2.86102294922
0.0,-1.0,0.0625,0.3662109375,0.18310546875,0.0152587890625
0.0,-0.99951171875,0.06298828125,0.030517578125,0.0228881835938,0.00762939453125
0.0,-1.0,0.062744140625,0.030517578125,1.953125,-2.92205810547
0.0,-0.99609375,0.06298828125,0.0,0.48828125,-2.44140625
0.0,-1.0,0.0625,0.0,1.953125,-2.41088867188
0.00390625,-1.0,0.0625,0.244140625,1.96838378906,-2.91442871094
0.00048828125,-0.999755859375,0.064453125,0.0,0.00762939453125,-2.43377685547
0.0,-0.998046875,0.0625,0.00762939453125,1.953125,-2.44140625
0.006103515625,-0.99560546875,0.0703125,0.244140625,1.953125,0.06103515625
0.001953125,-1.0,0.062744140625,0.48828125,0.1220703125,-2.42614746094
0.00048828125,-1.0,0.0703125,0.518798828125,1.953125,-2.41088867188
0.00048828125,-0.998046875,0.0703125,0.274658203125,1.953125,-2.28881835938
0.00048828125,-1.0,0.064453125,0.9765625,2.01416015625,0.0
0.0,-1.0,0.06640625,0.0,1.98364257812,-2.3193359375
0.0009765625,-0.99951171875,0.0673828125,0.244140625,1.953125,-2.3193359375
0.0,-1.0,0.0625,0.0,0.3662109375,-2.43377685547
0.0,-1.0,0.063232421875,0.0,1.953125,0.0
0.005859375,-1.0,0.0634765625,1.01470947266,0.244140625,0.030517578125
0.00390625,-1.0,0.0625,1.00708007812,0.0,-2.89154052734
0.000244140625,-0.9990234375,0.062744140625,0.244140625,0.1220703125,-2.43377685547
0.0048828125,-0.998779296875,0.0634765625,0.3662109375,1.953125,-2.86865234375
0.00439453125,-0.99951171875,0.06494140625,0.54931640625,0.06103515625,-2.9296875
0.001953125,-0.99951171875,0.0625,0.274658203125,0.396728515625,-2.42614746094
0.0,-1.0,0.0625,0.48828125,0.381469726562,-2.85339355469
0.0244140625,-0.998779296875,0.06298828125,0.0,1.953125,-2.86865234375
0.004150390625,-1.0,0.064453125,0.9765625,0.0,-2.25830078125
0.0,-1.0,0.068359375,0.30517578125,1.953125,-2.44140625
0.0,-1.0,0.000244140625,0.0,2.197265625,-2.86102294922
0.0,-1.0,0.06640625,0.00762939453125,0.244140625,-2.44140625
0.0009765625,-1.0,0.063720703125,0.54931640625,2.02941894531,0.00762939453125
0.00390625,-0.999755859375,0.0625,0.244140625,0.48828125,-2.9296875
0.0,-1.0,0.0625,0.244140625,1.953125,0.0
0.0,-0.99951171875,0.0625,0.0,0.48828125,0.0
0.0,-0.998046875,0.064453125,0.18310546875,2.25830078125,0.00762939453125
0.001953125,-0.995849609375,0.0625,0.9765625,1.953125,0.0
0.0,-0.9990234375,0.064453125,0.244140625,0.1220703125,-2.44140625
0.0048828125,-0.995849609375,0.06298828125,0.091552734375,0.244140625,0.030517578125
0.0,-0.99951171875,0.0654296875,0.00762939453125,2.02178955078,-2.9296875
0.00048828125,-1.0,0.0625,0.0,0.48828125,-2.43377685547
0.0,-0.998046875,0.064453125,0.06103515625,2.0751953125,0.06103515625
0.000244140625,-1.0,0.0625,0.48828125,1.953125,-2.44140625
0.0048828125,-1.0,0.0625,0.06103515625,2.09045410156,-2.89916992188
0.0,-1.0,0.0625,0.48828125,1.953125,-2.9296875
0.00048828125,-1.0,0.0625,0.54931640625,1.953125,-2.44140625
0.001953125,-1.0,0.0703125,0.1220703125,1.953125,-2.38037109375
0.0,-1.0,0.0625,0.030517578125,1.953125,0.0
0.00439453125,-1.0,0.0625,0.0,0.0,0.0
0.0,-0.99609375,0.06640625,0.152587890625,0.0,-2.67791748047
0.0009765625,-0.99951171875,0.068359375,0.48828125,0.274658203125,-2.51770019531
0.0,-1.0,0.062744140625,0.518798828125,1.953125,0.0
0.0048828125,-0.995849609375,0.0625,0.1220703125,0.48828125,0.06103515625
0.0,-0.995849609375,0.0625,0.0,1.953125,0.1220703125
0.0,-0.999267578125,0.06640625,0.06103515625,2.0751953125,-2.44140625
0.0,-0.998046875,0.064453125,0.0,2.01416015625,-2.92205810547
0.0,-1.0,0.0732421875,0.9765625,1.96075439453,-2.43377685547
0.00048828125,-0.998046875,0.064453125,0.0,1.953125,0.0
0.005126953125,-1.0,0.062744140625,0.0,0.0152587890625,-2.41088867188
0.000244140625,-1.0,0.0625,0.244140625,2.197265625,0.00762939453125
0.0,-0.99609375,0.0703125,0.0,0.48828125,0.00762939453125
0.0,-1.0,0.065185546875,0.0,0.167846679688,-2.44140625
0.0,-0.9990234375,0.0625,0.244140625,1.953125,-2.89916992188
0.0,-0.99609375,0.064453125,0.48828125,1.953125,-2.44140625
0.006103515625,-0.99609375,0.0625,0.48828125,0.48828125,-2.77709960938
0.00390625,-0.999755859375,0.0625,0.48828125,1.953125,-2.92205810547
0.0,-1.0,0.0625,0.00762939453125,1.953125,-2.42614746094
0.00390625,-0.99609375,0.062744140625,0.48828125,1.953125,-2.92205810547
0.00390625,-1.0,0.0625,0.274658203125,0.48828125,-2.9296875
0.0,-1.0,0.0703125,0.244140625,0.1220703125,0.0
0.0,-1.0,0.063720703125,0.396728515625,1.953125,-2.8076171875
0.0,-0.999755859375,0.0625,0.9765625,1.96075439453,0.0152587890625
0.0009765625,-1.0,0.0634765625,0.244140625,2.01416015625,0.1220703125
0.005859375,-1.0,0.066650390625,0.0457763671875,2.01416015625,-2.44140625
0.001220703125,-0.9990234375,0.062744140625,0.0,0.1220703125,-2.5634765625
0.0,-1.0,0.0625,0.495910644531,0.1220703125,0.030517578125
0.001953125,-0.998046875,0.0625,0.0,0.244140625,-2.9296875
0.0,-0.999755859375,0.0625,0.18310546875,1.953125,-2.79998779297
0.0,-0.99951171875,0.064453125,1.03759765625,1.953125,0.0
0.0078125,-1.0,0.0625,0.991821289062,1.953125,-2.38037109375
0.0,-0.998046875,0.0625,0.0,1.96075439453,-2.197265625
0.00048828125,-1.0,0.0634765625,0.244140625,1.953125,-2.8076171875
0.00390625,-1.0,0.0673828125,0.244140625,0.3662109375,0.0
0.0,-0.99609375,0.0625,0.244140625,1.953125,-2.44140625
0.001953125,-1.0,0.06640625,0.0,0.579833984375,-2.60925292969
0.0,-0.99951171875,0.0625,0.9765625,0.518798828125,-2.77709960938
0.000244140625,-0.99951171875,0.0625,0.244140625,1.96838378906,-2.38037109375
0.00048828125,-0.99169921875,0.0625,0.0,1.96075439453,0.1220703125
0.001953125,-1.0,0.0625,0.06103515625,1.953125,-2.42614746094
0.0,-1.0,0.062744140625,0.0,1.953125,0.0
0.0078125,-1.0,0.062744140625,0.1220703125,1.953125,-2.44140625
0.0,-1.0,0.062744140625,0.495910644531,0.1220703125,0.0
0.000244140625,-1.0,0.0634765625,0.0,0.00762939453125,0.0
0.0,-1.0,0.0625,0.503540039062,0.00762939453125,-2.8076171875
0.006103515625,-1.0,0.0625,0.503540039062,2.01416015625,0.0
0.000244140625,-0.99853515625,0.0625,0.320434570312,1.953125,-2.89154052734
0.0,-1.0,0.06640625,0.244140625,2.0751953125,-2.39562988281
0.0,-0.998046875,0.06298828125,0.48828125,2.01416015625,-2.62451171875
0.0,-0.99609375,0.0625,0.381469726562,0.259399414062,-2.685546875
0.0009765625,-0.99609375,0.0625,0.0,0.48828125,-2.70843505859
0.0,-0.99951171875,0.0625,0.0,2.08282470703,-2.44140625
0.00390625,-0.99609375,0.064453125,0.244140625,1.953125,-2.74658203125
0.0,-0.9970703125,0.0625,0.00762939453125,1.953125,-2.8076171875
0.0,-0.998046875,0.0625,0.48828125,1.953125,-2.9296875
0.009765625,-1.0,0.0634765625,0.244140625,2.197265625,-2.44140625
0.0078125,-0.9990234375,0.0625,0.0,1.953125,-2.43377685547
0.005859375,-0.999755859375,0.078125,0.0,1.953125,-2.86102294922
0.0,-0.991943359375,0.0634765625,0.9765625,1.953125,-2.42614746094
0.0,-0.998046875,0.06298828125,0.18310546875,0.0686645507812,-2.685546875
0.0,-0.9951171875,0.0625,0.274658203125,1.953125,-2.44140625
0.0,-0.99609375,0.0625,0.274658203125,0.0,-2.8076171875
0.0009765625,-1.0,0.07470703125,0.244140625,2.10571289062,0.030517578125
0.000244140625,-1.0,0.0634765625,0.3662109375,1.96075439453,-2.42614746094
0.00927734375,-1.0,0.0625,0.984191894531,1.96838378906,-2.44140625
0.00048828125,-0.99609375,0.0625,0.511169433594,0.259399414062,-2.92205810547
0.0,-0.999755859375,0.0634765625,0.373840332031,0.48828125,0.0
0.0,-0.99951171875,0.0634765625,0.244140625,0.244140625,0.06103515625
0.005859375,-0.998046875,0.0625,0.48828125,2.01416015625,-2.9296875
0.001953125,-1.0,0.06640625,0.244140625,1.953125,0.00762939453125
0.0,-1.0,0.0625,0.030517578125,0.244140625,-2.42614746094
0.0,-1.0,0.0625,0.274658203125,0.1220703125,-2.9296875
0.0,-1.0,0.0625,0.0,2.09045410156,0.0228881835938
0.0,-0.9951171875,0.0625,1.00708007812,1.953125,0.0228881835938
0.0,-1.0,0.0625,0.0,0.137329101562,-2.5634765625
0.00048828125,-1.0,0.0634765625,0.06103515625,1.953125,0.0
0.0078125,-1.0,0.064453125,0.3662109375,0.0152587890625,-2.197265625
0.0,-1.0,0.06640625,0.244140625,1.953125,-2.3193359375
0.000732421875,-1.0,0.0625,0.0686645507812,1.953125,-2.53295898438
0.000244140625,-0.99951171875,0.06689453125,1.01470947266,2.0751953125,-2.44140625
0.0,-1.0,0.0625,0.0686645507812,2.08282470703,-2.60925292969
0.00048828125,-0.99951171875,0.0625,0.251770019531,2.15148925781,0.0762939453125
0.001220703125,-0.998046875,0.06298828125,0.137329101562,2.01416015625,-2.44140625
0.000732421875,-0.999755859375,0.0625,0.0,1.953125,-2.30407714844
0.0,-1.0,0.06298828125,0.244140625,0.244140625,-2.67028808594
0.0,-1.0,0.06298828125,0.0,1.953125,-2.91442871094
0.0,-0.9990234375,0.0625,0.0,0.48828125,-2.86865234375
0.0,-1.0,0.0634765625,0.0,0.274658203125,-2.44140625
0.005859375,-1.0,0.0625,0.9765625,1.953125,-2.9296875
0.0009765625,-0.998046875,0.0625,0.244140625,1.953125,0.0
0.00390625,-0.998046875,0.06298828125,0.267028808594,1.953125,-2.86102294922
0.0,-0.999267578125,0.062744140625,0.244140625,1.953125,-2.60925292969
0.005859375,-0.9990234375,0.0625,0.0152587890625,0.030517578125,-2.44140625
0.0,-1.0,0.0625,0.518798828125,0.495910644531,-2.41088867188
0.00390625,-1.0,0.0625,0.0,0.030517578125,0.06103515625
0.00048828125,-0.999755859375,0.0625,0.244140625,1.953125,-2.43377685547
0.0,-1.0,0.06640625,0.0,1.953125,-2.83813476562
0.00439453125,-1.0,0.0625,0.274658203125,2.197265625,-2.28881835938
0.0,-1.0,0.0625,0.030517578125,1.953125,0.091552734375
0.0,-0.99951171875,0.062744140625,0.48828125,1.98364257812,-2.9296875
0.0,-0.99951171875,0.0634765625,0.030517578125,1.953125,0.0
0.0,-0.999755859375,0.0625,0.495910644531,1.953125,-2.89916992188
0.004150390625,-0.998046875,0.0703125,0.244140625,1.953125,-2.41088867188
0.0,-0.99609375,0.06640625,0.1220703125,1.96838378906,-2.86102294922
0.000244140625,-1.0,0.0634765625,0.54931640625,1.953125,0.0
0.000244140625,-0.99951171875,0.0625,0.0,1.98364257812,-2.41088867188
0.002197265625,-0.9951171875,0.068359375,0.244140625,1.96075439453,0.0
0.0,-1.0,0.0625,0.3662109375,0.0,-2.39562988281
0.000244140625,-0.99609375,0.0625,0.48828125,0.0,-2.34985351562
0.00048828125,-0.999755859375,0.0625,0.495910644531,1.953125,-2.44140625
0.0,-1.0,0.0625,0.00762939453125,0.0,0.0152587890625
0.0009765625,-1.0,0.06640625,0.495910644531,1.96838378906,0.0
0.00048828125,-1.0,0.0625,0.0,2.02178955078,-2.44140625
0.001953125,-1.0,0.064453125,0.9765625,0.381469726562,-2.89916992188
0.001953125,-0.999755859375,0.0625,0.244140625,2.22778320312,-2.9296875
0.00439453125,-0.99609375,0.0625,0.0152587890625,2.13623046875,-2.9296875
0.0,-1.0,0.062744140625,0.0,0.1220703125,-2.685546875
0.001953125,-1.0,0.0625,0.0,0.0,0.0
0.0,-0.998291015625,0.0625,0.00762939453125,1.953125,-2.79235839844
0.00390625,-0.998046875,0.0625,0.3662109375,2.01416015625,0.0
0.015625,-0.998046875,0.06298828125,0.9765625,1.953125,-2.685546875
0.0,-0.99609375,0.0703125,0.0,2.01416015625,-2.89916992188
0.00390625,-1.0,0.06689453125,0.48828125,1.953125,0.0
0.00390625,-0.995849609375,0.0625,0.030517578125,1.953125,0.0
0.0,-1.0,0.062744140625,0.244140625,1.96075439453,-2.25830078125
0.0,-1.0,0.0625,0.06103515625,1.953125,0.030517578125
0.001953125,-1.0,0.064453125,0.0,2.10571289062,-2.79998779297
0.0009765625,-0.99951171875,0.0625,0.06103515625,0.48828125,-2.9296875
0.0,-0.99609375,0.0634765625,0.244140625,2.01416015625,-2.9296875
0.000244140625,-1.0,0.06396484375,0.48828125,0.030517578125,0.0
0.0,-0.998046875,0.0625,0.0,1.953125,-2.44140625
0.00048828125,-0.999755859375,0.0625,0.0,0.213623046875,-2.44140625
0.001953125,-1.0,0.0625,0.030517578125,1.953125,-2.44140625
0.00537109375,-1.0,0.0625,0.259399414062,1.953125,-2.86865234375
0.0009765625,-0.99951171875,0.06640625,0.30517578125,2.04467773438,-2.3193359375
0.0,-1.0,0.06298828125,0.9765625,1.953125,0.0
0.0,-0.99609375,0.0625,0.244140625,1.953125,-2.61688232422
0.0,-0.999755859375,0.0703125,0.0,1.953125,0.0
0.0,-1.0,0.0625,0.0,1.98364257812,0.0152587890625
0.008056640625,-0.9990234375,0.0625,0.030517578125,0.48828125,0.0
0.0,-0.998046875,0.0625,0.18310546875,1.953125,-2.44140625
0.0,-1.0,0.0712890625,0.274658203125,2.197265625,0.0
0.0009765625,-0.99951171875,0.080078125,0.9765625,1.98364257812,-2.91442871094
0.0078125,-0.999755859375,0.064453125,0.48828125,2.20489501953,-2.197265625
0.0,-0.999755859375,0.0703125,0.0,1.97601318359,-1.86157226562
0.00390625,-1.0,0.0625,0.1220703125,1.953125,0.0
0.00439453125,-1.0,0.0703125,0.9765625,1.953125,0.0
0.001953125,-0.99609375,0.0654296875,0.48828125,0.144958496094,-2.43377685547
0.0,-1.0,0.06640625,0.0,0.0,0.0
0.001953125,-1.0,0.0625,0.1220703125,0.0152587890625,-2.44140625
0.0,-0.9990234375,0.0625,0.48828125,0.0,-2.9296875
0.0,-0.99609375,0.0625,0.518798828125,1.953125,0.0
0.0,-0.99609375,0.0625,0.1220703125,0.244140625,-2.197265625
0.004150390625,-0.999755859375,0.0625,0.0,0.0,-2.685546875
0.0166015625,-1.0,0.0625,0.0,1.953125,-2.86865234375
0.0078125,-1.0,0.0625,0.259399414062,1.96838378906,0.0
0.001953125,-0.995849609375,0.0634765625,0.251770019531,1.98364257812,-2.8076171875
0.0,-0.99951171875,0.0625,0.9765625,0.518798828125,-2.38037109375
0.0009765625,-0.998046875,0.064453125,0.9765625,1.953125,0.00762939453125
0.0,-1.0,0.06298828125,0.9765625,1.953125,-2.85339355469
0.0078125,-0.997802734375,0.0673828125,0.06103515625,1.953125,-2.38037109375
0.0078125,-1.0,0.0625,0.0,1.953125,0.0
0.000244140625,-0.99951171875,0.0703125,0.0,2.01416015625,0.00762939453125
0.0,-0.9921875,0.0703125,0.9765625,1.953125,-2.65502929688
0.000244140625,-0.99560546875,0.0625,0.0762939453125,1.953125,-2.685546875
0.0,-1.0,0.062744140625,0.0152587890625,0.137329101562,-2.685546875
0.0,-1.0,0.0625,0.373840332031,0.244140625,0.0
0.0,-0.998046875,0.0625,0.1220703125,1.98364257812,0.0152587890625
0.000244140625,-1.0,0.0625,0.244140625,1.953125,0.0
0.00048828125,-0.99853515625,0.0625,0.244140625,0.48828125,-2.55584716797
0.0,-1.0,0.06640625,0.244140625,2.01416015625,-2.44140625
0.00048828125,-0.99609375,0.0703125,0.129699707031,2.0751953125,-2.44140625
0.0,-1.0,0.0625,0.06103515625,1.953125,0.0
0.0009765625,-1.0,0.062744140625,0.0,0.0152587890625,-2.44140625
0.0,-0.99951171875,0.0625,0.0762939453125,1.96838378906,-2.9296875
0.0009765625,-1.0,0.0625,0.0,2.02941894531,0.0
0.0,-1.0,0.0634765625,0.0,0.0,0.1220703125
0.0,-1.0,0.0625,0.48828125,1.953125,-3.64685058594
0.0,-0.9990234375,0.0625,0.106811523438,2.44140625,-3.90625
0.0078125,-1.0,0.064453125,0.0,2.0751953125,0.00762939453125
0.001953125,-0.9970703125,0.0625,-1.5869140625,0.137329101562,-2.86865234375
0.000244140625,-1.0,0.0625,0.0,1.953125,0.0
0.0,-0.99951171875,0.062744140625,1.98364257812,1.98364257812,0.251770019531
0.0009765625,-1.0,0.0625,0.00762939453125,0.67138671875,-2.44140625
0.00390625,-0.99951171875,0.064453125,0.534057617188,0.06103515625,-1.953125
0.0,-1.0,0.0634765625,0.244140625,0.0381469726562,-2.89916992188
0.000244140625,-0.9990234375,0.06298828125,0.0,0.48828125,0.030517578125
0.000244140625,-1.0,0.0703125,0.0,0.0,0.0
0.0,-1.0,0.06640625,0.0381469726562,0.732421875,0.030517578125
0.001953125,-0.9921875,0.064453125,0.244140625,1.953125,1.03759765625
0.0,-0.99560546875,0.06298828125,0.0,0.0,-2.92205810547
0.0,-1.0,0.06298828125,0.0,2.01416015625,-3.86810302734
0.000244140625,-1.0,0.06640625,0.091552734375,1.953125,0.0762939453125
0.0009765625,-1.0,0.0625,0.259399414062,0.18310546875,-3.7841796875
0.0,-1.0,0.0634765625,0.18310546875,2.04467773438,-3.89862060547
0.0,-0.984375,0.0625,1.953125,2.45666503906,0.503540039062
0.0009765625,-1.0,0.0634765625,0.0,0.0,0.0
0.001953125,-1.0,0.0625,0.0381469726562,0.0152587890625,0.0
0.00048828125,-1.0,0.0625,0.00762939453125,0.54931640625,0.0
0.00390625,-0.999267578125,0.078125,0.0,0.732421875,0.274658203125
0.0078125,-0.9921875,0.0703125,0.129699707031,0.0,0.00762939453125
0.00390625,-0.9912109375,0.0625,0.259399414062,0.0,-1.953125
0.00048828125,-0.99169921875,0.06640625,1.953125,1.953125,-3.16619873047
0.0,-0.9990234375,0.0703125,0.1220703125,1.953125,0.0
0.0,-1.0,0.062744140625,0.06103515625,0.0,-3.41796875
0.0009765625,-0.99755859375,0.0625,0.0,0.0152587890625,-3.90625
0.0,-0.999755859375,0.0625,0.48828125,2.50244140625,-3.89099121094
0.0,-0.99951171875,0.064453125,0.48828125,2.01416015625,0.0457763671875
0.0,-0.99609375,0.0625,0.06103515625,0.00762939453125,-1.89208984375
0.0068359375,-0.998046875,0.06640625,0.0,0.0,0.030517578125
0.0,-0.99951171875,0.0625,0.030517578125,0.48828125,0.1220703125
0.00390625,-0.998046875,0.0625,0.0,1.953125,0.00762939453125
0.0,-1.0,0.0625,0.0152587890625,0.0152587890625,0.0
0.0,-0.9970703125,0.0625,0.091552734375,0.0,-1.77001953125
0.0048828125,-1.0,0.063720703125,1.04522705078,1.953125,-3.75366210938
0.0,-0.999755859375,0.066650390625,0.1220703125,1.953125,0.0
0.0,-0.99853515625,0.0703125,0.0,0.00762939453125,-3.40270996094
0.0,-0.994140625,0.0625,0.274658203125,0.48828125,-3.90625
0.0,-0.99658203125,0.0625,0.06103515625,1.99890136719,-2.8076171875
0.010009765625,-0.9990234375,0.0625,0.999450683594,2.53295898438,0.0
0.0078125,-1.0,0.0625,0.00762939453125,0.1220703125,-2.44140625
0.000732421875,-1.0,0.0625,0.0,0.0152587890625,-2.197265625
0.000244140625,-1.0,0.06298828125,0.0,0.0,0.0
0.0,-0.99951171875,0.06298828125,0.8544921875,2.09045410156,0.244140625
0.0,-1.0,0.0625,0.1220703125,0.0,-1.953125
0.002197265625,-0.991455078125,0.0625,0.9765625,0.198364257812,-1.953125
0.0,-0.998046875,0.0,0.48828125,2.0751953125,-2.9296875
0.0009765625,-0.997802734375,0.06640625,0.54931640625,0.0,0.0
0.0,-0.999755859375,0.064453125,0.740051269531,0.503540039062,-2.92205810547
0.0,-0.99951171875,0.0625,0.0,1.98364257812,-3.662109375
0.0,-0.9990234375,0.0654296875,0.48828125,2.20489501953,0.06103515625
0.0,-0.99609375,0.06298828125,0.244140625,2.01416015625,0.0
0.0,-1.0,0.0625,0.0,0.0,-1.953125
0.00146484375,-0.999755859375,0.064453125,0.1220703125,1.953125,-2.86865234375
0.0,-1.0,0.06396484375,0.0,1.96075439453,0.00762939453125
0.00390625,-1.0,0.0703125,0.42724609375,0.0152587890625,0.0
0.001953125,-0.99951171875,0.0625,0.0152587890625,0.1220703125,-1.953125
0.001953125,-0.998046875,0.0625,0.9765625,0.373840332031,-2.44140625
0.001953125,-0.9912109375,0.0625,1.98364257812,2.44140625,-2.9296875
0.0078125,-0.99951171875,0.0625,0.1220703125,1.96075439453,0.1220703125
0.0,-1.0,0.0625,0.495910644531,2.0751953125,-2.8076171875
0.01611328125,-0.998046875,0.072265625,0.6103515625,1.953125,-3.41796875
0.008056640625,-1.0,0.0625,0.274658203125,1.953125,-2.685546875
0.0,-1.0,0.068359375,0.0,0.503540039062,-2.685546875
0.0,-0.998046875,0.0634765625,0.0228881835938,0.495910644531,-2.38037109375
0.0,-0.99951171875,0.0625,0.030517578125,1.98364257812,0.0
0.0,-0.99609375,0.0625,0.48828125,1.953125,0.1220703125
0.001220703125,-0.9990234375,0.064453125,0.732421875,0.274658203125,-1.708984375
0.015625,-1.0,0.0625,1.03759765625,0.244140625,-2.44140625
0.0029296875,-1.0,0.0732421875,0.495910644531,1.96838378906,-2.685546875
0.0009765625,-0.99951171875,0.0634765625,0.732421875,1.953125,-2.8076171875
0.01611328125,-0.999755859375,0.06396484375,0.0,0.160217285156,-2.86102294922
0.015625,-0.99609375,0.064453125,0.48828125,1.96075439453,0.06103515625
0.0,-0.99951171875,0.06298828125,0.0,0.42724609375,0.0
0.0,-1.0,0.064453125,0.0762939453125,0.00762939453125,-2.67791748047
0.001953125,-0.99951171875,0.0625,0.1220703125,1.953125,0.1220703125
0.0,-0.9990234375,0.0634765625,0.9765625,1.96075439453,0.0
0.0,-0.998046875,0.0625,0.0,0.0,-2.41088867188
0.0,-0.984130859375,0.064453125,0.0152587890625,1.98364257812,-2.44140625
0.00439453125,-0.997802734375,0.0625,1.00708007812,0.00762939453125,-2.9296875
0.00146484375,-1.0,0.064453125,0.244140625,2.0751953125,-2.92205810547
0.00390625,-0.99951171875,0.06396484375,0.244140625,0.0,-3.2958984375
0.004150390625,-1.0,0.0625,0.3662109375,1.98364257812,-2.89916992188
0.0,-1.0,0.0625,0.0,2.44140625,0.06103515625
0.0,-1.0,0.0625,0.1220703125,0.267028808594,-2.9296875
0.001953125,-1.0,0.0625,0.0,0.244140625,0.0
0.0,-1.0,0.06640625,1.0986328125,0.251770019531,-2.9296875
0.0,-0.99951171875,0.0625,0.54931640625,1.953125,0.167846679688
0.008056640625,-0.9990234375,0.0634765625,0.244140625,1.96075439453,0.0
0.001953125,-0.9990234375,0.06640625,0.137329101562,2.09808349609,0.0
0.015625,-0.998046875,0.06298828125,0.0,1.953125,-2.38037109375
0.01220703125,-0.999755859375,0.064453125,0.030517578125,0.0762939453125,-2.39562988281
0.0087890625,-1.0,0.0625,0.0,0.54931640625,-2.9296875
0.0078125,-1.0,0.06689453125,0.030517578125,0.503540039062,-2.9296875
0.0048828125,-1.0,0.062744140625,0.244140625,1.96838378906,-2.91442871094
0.00048828125,-1.0,0.06298828125,0.48828125,1.953125,-2.89916992188
0.000244140625,-1.0,0.062744140625,0.0,0.0,-2.685546875
0.0,-0.99951171875,0.06298828125,0.0,2.01416015625,-2.9296875
0.0029296875,-0.99951171875,0.062744140625,0.48828125,1.96075439453,0.0
0.000244140625,-0.999755859375,0.0625,0.518798828125,1.953125,0.0
0.0,-1.0,0.06640625,0.0152587890625,0.0152587890625,0.0
0.0,-1.0,0.06298828125,0.3662109375,1.953125,0.167846679688
0.015625,-0.998046875,0.0625,0.00762939453125,2.197265625,-2.43377685547
0.0,-0.9990234375,0.0625,0.06103515625,0.1220703125,0.0
0.00390625,-1.0,0.062744140625,0.9765625,0.54931640625,0.1220703125
0.000732421875,-1.0,0.0634765625,0.00762939453125,1.953125,-2.44140625
0.0,-0.999755859375,0.06689453125,0.0,1.96838378906,0.0152587890625
0.0,-0.99560546875,0.0625,0.0,0.54931640625,-2.8076171875
0.00048828125,-1.0,0.064453125,0.0,1.953125,-2.9296875
0.00048828125,-1.0,0.0625,0.48828125,1.953125,-2.44140625
0.0,-1.0,0.063232421875,0.9765625,0.030517578125,0.0
0.004150390625,-0.9990234375,0.064453125,0.9765625,0.129699707031,0.0
0.0078125,-1.0,0.0625,0.9765625,1.96838378906,0.0762939453125
0.00390625,-1.0,0.062744140625,0.885009765625,1.96075439453,-2.9296875
0.001953125,-0.984375,0.0625,0.244140625,0.6103515625,-2.44140625
0.00048828125,-0.9990234375,0.06884765625,0.0,2.20489501953,-2.9296875
0.0,-0.9990234375,0.0625,0.0534057617188,1.953125,0.251770019531
0.002197265625,-1.0,0.0625,0.0,0.259399414062,0.0
0.015625,-1.0,0.0634765625,0.1220703125,1.953125,-2.41088867188
0.015625,-0.998046875,0.0625,0.991821289062,1.953125,0.0
0.015625,-1.0,0.0625,0.244140625,1.98364257812,-2.44140625
0.0,-1.0,0.06640625,0.54931640625,1.953125,-2.18963623047
0.00390625,-0.99951171875,0.0625,0.030517578125,0.244140625,-2.44140625
0.017578125,-1.0,0.0703125,0.503540039062,1.953125,-2.42614746094
0.00390625,-0.999755859375,0.0625,0.251770019531,2.13623046875,0.0
0.00390625,-1.0,0.0625,0.0,0.0,-2.91442871094
0.008056640625,-1.0,0.0625,0.244140625,0.48828125,-2.67791748047
0.0,-1.0,0.064453125,0.0,1.953125,0.0228881835938
0.0,-1.0,0.0625,0.0,1.96075439453,0.0
0.0,-0.9921875,0.0625,0.244140625,0.0,-3.90625
0.0166015625,-1.0,0.0,0.06103515625,0.244140625,0.9765625
0.009033203125,-0.99853515625,0.0703125,0.991821289062,0.48828125,-2.44140625
0.0,-0.99609375,0.06298828125,0.00762939453125,0.0,0.0
0.008544921875,-0.997802734375,0.0654296875,0.18310546875,1.96075439453,0.030517578125
0.0,-1.0,0.062744140625,0.0,1.953125,0.0
0.004150390625,-1.0,0.0703125,0.244140625,0.3662109375,-2.86865234375
0.0,-0.995361328125,0.0625,0.0152587890625,1.953125,-2.44140625
0.004638671875,-1.0,0.0625,0.0,0.244140625,-2.42614746094
0.008544921875,-1.0,0.0625,0.0,1.96075439453,-2.685546875
0.016357421875,-1.0,0.06298828125,0.0,1.953125,0.0
0.01953125,-0.99853515625,0.064453125,0.0,0.48828125,-2.42614746094
0.015625,-1.0,0.06640625,0.30517578125,1.96075439453,-2.8076171875
0.02001953125,-1.0,0.0625,0.0,0.396728515625,-2.8076171875
0.017578125,-1.0,0.0625,0.244140625,1.98364257812,0.0
0.015625,-0.999755859375,0.0625,1.00708007812,1.98364257812,-2.41088867188
0.0,-0.999755859375,0.0625,0.0,1.953125,0.06103515625
0.0,-1.0,0.068359375,0.48828125,0.48828125,0.0
0.005859375,-0.9990234375,0.0625,0.0,0.48828125,-2.92205810547
0.001953125,-1.0,0.0009765625,0.06103515625,1.96075439453,-2.41088867188
0.0,-1.0,0.0625,0.526428222656,0.0,0.0381469726562
0.500244140625,-0.490234375,0.0,0.9765625,191.421508789,-39.0625
0.1259765625,-1.0,0.501953125,1.15966796875,2.685546875,33.2565307617
0.0009765625,0.008056640625,0.0009765625,7.8125,5.0048828125,0.0152587890625
0.626953125,-0.75,0.0625,0.0152587890625,0.00762939453125,0.030517578125
0.0,-0.875,0.0009765625,-46.875,93.7805175781,0.129699707031
0.0078125,-0.9365234375,0.875,1.953125,3.90625,0.732421875
0.3125,-0.984375,0.001953125,-23.4375,7.8125,0.06103515625
0.5,-0.75,0.25,0.06103515625,0.0,15.6631469727
0.28125,-0.7421875,0.00048828125,4.39453125,0.0,0.42724609375
0.00341796875,-0.96826171875,0.00390625,31.25,1.0986328125,-54.6875
0.0322265625,0.32421875,0.015625,-124.015808105,0.0,-93.75
0.125244140625,-1.5625,0.0009765625,0.0,0.0686645507812,1.15966796875
0.017578125,-1.0,0.0,0.0,0.0,0.984191894531
0.015625,-0.991943359375,0.0078125,7.87353515625,0.129699707031,0.732421875
0.2578125,-0.952880859375,0.01171875,15.625,0.0,3.92150878906
0.25,-0.748046875,0.125,0.259399414062,7.82012939453,0.030517578125
0.0625,-0.99169921875,0.12646484375,0.152587890625,0.137329101562,4.39453125
0.0,-0.93359375,0.0,16.6015625,27.587890625,0.244140625
0.00048828125,-0.962890625,0.0625,3.93676757812,32.1273803711,2.44903564453
0.00390625,-0.75,0.109375,0.48828125,35.2249145508,0.129699707031
0.063720703125,-0.7255859375,0.12890625,0.0762939453125,12.6953125,0.0
0.0,-0.9755859375,0.0947265625,0.030517578125,31.379699707,23.4451293945
0.0009765625,-0.99951171875,0.031494140625,1.953125,0.137329101562,0.137329101562
0.011962890625,-0.4990234375,0.386962890625,0.48828125,-30.0750732422,0.0152587890625
0.00537109375,-0.999755859375,0.6884765625,8.4228515625,-57.6171875,0.0
0.133056640625,-1.0,0.015625,0.0,8.30078125,1.48010253906
0.00048828125,-0.991943359375,0.000244140625,0.0,0.564575195312,0.1220703125
0.0,-0.9990234375,0.0009765625,-15.625,0.00762939453125,1.953125
0.0,-0.984375,0.0029296875,0.06103515625,-15.5944824219,0.0152587890625
0.564453125,0.0107421875,0.00390625,7.8125,0.0,0.190734863281
0.0625,-0.92578125,0.03125,3.96728515625,0.244140625,16.11328125
0.03125,-0.9921875,0.004150390625,1.98364257812,-46.875,7.8125
0.0,-0.78076171875,0.00048828125,0.137329101562,0.0152587890625,0.030517578125
0.0,-0.87109375,0.0,7.8125,15.625,0.06103515625
0.0703125,-1.0,0.0078125,3.91387939453,-74.2034912109,0.9765625
0.0,-0.994140625,0.0234375,0.0,0.0,0.1220703125
0.2626953125,-0.98388671875,0.125,31.494140625,-19.5007324219,-29.296875
0.0,-0.734375,0.078125,0.518798828125,0.1220703125,1.98364257812
0.015625,-1.0,0.0,2.197265625,0.9765625,2.0751953125
0.50390625,-0.984375,0.001953125,0.244140625,0.48828125,10.8642578125
0.140625,-0.999755859375,0.0,0.1220703125,0.0,0.0
0.0,-0.997802734375,0.12548828125,-31.25,0.0,0.0
